{
    "resourceType": "Bundle",
    "entry": [
        {
            "fullUrl": "urn:uuid:99974b53-b2b6-4a0d-a9de-6cff69f07efb",
            "resource": {
                "resourceType": "MessageHeader",
                "destination": [
                    {
                        "endpoint": "https//fhir.mft.nhs.uk/Endpoint/EPIC",
                        "receiver": {
                            "identifier": {
                                "system": "https://fhir.nhs.uk/Id/ods-organization-code",
                                "value": "699X0"
                            }
                        }
                    }
                ],
                "eventCoding": {
                    "code": "T02",
                    "system": "http://terminology.hl7.org/CodeSystem/v2-0003"
                },
                "focus": [
                    {
                        "reference": "urn:uuid:27878aff-b773-4f56-97d9-83a7c98af40a"
                    }
                ],
                "sender": {
                    "identifier": {
                        "system": "https://fhir.nhs.uk/Id/ods-organization-code",
                        "value": "699X0"
                    }
                },
                "source": {
                    "endpoint": "https://fhir.nwgenomics.nhs.uk/Endpoint/IGENE",
                    "software": "NW GLH"
                }
            }
        },
        {
            "fullUrl": "urn:uuid:cc2616f3-0310-4e86-8801-720383e15210",
            "resource": {
                "resourceType": "Patient",
                "address": [
                    {
                        "postalCode": "DL8 3QN"
                    }
                ],
                "birthDate": "2023-02-09",
                "gender": "female",
                "identifier": [
                    {
                        "system": "https://fhir.nhs.uk/Id/nhs-number",
                        "type": {
                            "coding": [
                                {
                                    "code": "NH",
                                    "system": "http://terminology.hl7.org/CodeSystem/v2-0203"
                                }
                            ]
                        },
                        "value": "9737383346"
                    },
                    {
                        "value": "MR"
                    },
                    {
                        "assigner": {
                            "identifier": {
                                "system": "https://fhir.nhs.uk/Id/ods-organization-code",
                                "value": "RBS"
                            }
                        },
                        "system": "http://www.acme.org/patient/identifier",
                        "type": {
                            "coding": [
                                {
                                    "code": "MR",
                                    "system": "http://terminology.hl7.org/CodeSystem/v2-0203"
                                }
                            ]
                        },
                        "value": "B67890"
                    }
                ],
                "name": [
                    {
                        "family": "HAWES",
                        "given": [
                            "Ygritte"
                        ]
                    }
                ]
            }
        },
        {
            "fullUrl": "urn:uuid:a2dd2776-350c-4815-9293-e364513d071a",
            "resource": {
                "resourceType": "Observation",
                "code": {
                    "coding": [
                        {
                            "code": "53577-3",
                            "display": "Reason for study",
                            "system": "http://loinc.org"
                        }
                    ]
                },
                "effectiveDateTime": "2016-08-09T16:50:00+00:00",
                "identifier": [
                    {
                        "assigner": {
                            "identifier": {
                                "system": "https://fhir.nhs.uk/Id/ods-organization-code",
                                "value": "699X0"
                            }
                        },
                        "system": "https://fhir.nwgenomics.nhs.uk/iGene/ReportIdentifier",
                        "type": {
                            "coding": [
                                {
                                    "code": "FILL",
                                    "system": "http://terminology.hl7.org/CodeSystem/v2-0203"
                                }
                            ]
                        },
                        "value": "Gen825750-LRI4"
                    }
                ],
                "performer": [
                    {
                        "identifier": {
                            "system": "https://fhir.nhs.uk/Id/ods-organization-code",
                            "value": "699X0"
                        },
                        "type": "Organization"
                    }
                ],
                "status": "final",
                "subject": {
                    "identifier": {
                        "system": "https://fhir.nhs.uk/Id/nhs-number",
                        "type": {
                            "coding": [
                                {
                                    "code": "NH",
                                    "system": "http://terminology.hl7.org/CodeSystem/v2-0203"
                                }
                            ]
                        },
                        "value": "9737383346"
                    },
                    "reference": "urn:uuid:cc2616f3-0310-4e86-8801-720383e15210"
                },
                "valueString": "Patient may have infantile epilepsy."
            }
        },
        {
            "fullUrl": "urn:uuid:cdf36c49-61b6-469f-8250-72fe805c5f3f",
            "resource": {
                "resourceType": "Observation",
                "code": {
                    "coding": [
                        {
                            "code": "51967-8",
                            "display": "Genetic disease(s) assessed",
                            "system": "http://loinc.org"
                        }
                    ]
                },
                "effectiveDateTime": "2016-08-09T16:50:00+00:00",
                "identifier": [
                    {
                        "assigner": {
                            "identifier": {
                                "system": "https://fhir.nhs.uk/Id/ods-organization-code",
                                "value": "699X0"
                            }
                        },
                        "system": "https://fhir.nwgenomics.nhs.uk/iGene/ReportIdentifier",
                        "type": {
                            "coding": [
                                {
                                    "code": "FILL",
                                    "system": "http://terminology.hl7.org/CodeSystem/v2-0203"
                                }
                            ]
                        },
                        "value": "Gen825750-LRI4"
                    }
                ],
                "performer": [
                    {
                        "identifier": {
                            "system": "https://fhir.nhs.uk/Id/ods-organization-code",
                            "value": "699X0"
                        },
                        "type": "Organization"
                    }
                ],
                "status": "final",
                "subject": {
                    "identifier": {
                        "system": "https://fhir.nhs.uk/Id/nhs-number",
                        "type": {
                            "coding": [
                                {
                                    "code": "NH",
                                    "system": "http://terminology.hl7.org/CodeSystem/v2-0203"
                                }
                            ]
                        },
                        "value": "9737383346"
                    },
                    "reference": "urn:uuid:cc2616f3-0310-4e86-8801-720383e15210"
                },
                "valueCodeableConcept": {
                    "coding": [
                        {
                            "code": "C0268126",
                            "display": "Adenylosuccinate lyase deficiency",
                            "system": "MedGen-Dis"
                        }
                    ]
                }
            }
        },
        {
            "fullUrl": "urn:uuid:e5f2703c-ffdc-4726-ac20-dc11909b1624",
            "resource": {
                "resourceType": "Observation",
                "code": {
                    "coding": [
                        {
                            "code": "51967-8",
                            "display": "Genetic disease(s) assessed",
                            "system": "http://loinc.org"
                        }
                    ]
                },
                "effectiveDateTime": "2016-08-09T16:50:00+00:00",
                "identifier": [
                    {
                        "assigner": {
                            "identifier": {
                                "system": "https://fhir.nhs.uk/Id/ods-organization-code",
                                "value": "699X0"
                            }
                        },
                        "system": "https://fhir.nwgenomics.nhs.uk/iGene/ReportIdentifier",
                        "type": {
                            "coding": [
                                {
                                    "code": "FILL",
                                    "system": "http://terminology.hl7.org/CodeSystem/v2-0203"
                                }
                            ]
                        },
                        "value": "Gen825750-LRI4"
                    }
                ],
                "performer": [
                    {
                        "identifier": {
                            "system": "https://fhir.nhs.uk/Id/ods-organization-code",
                            "value": "699X0"
                        },
                        "type": "Organization"
                    }
                ],
                "status": "final",
                "subject": {
                    "identifier": {
                        "system": "https://fhir.nhs.uk/Id/nhs-number",
                        "type": {
                            "coding": [
                                {
                                    "code": "NH",
                                    "system": "http://terminology.hl7.org/CodeSystem/v2-0203"
                                }
                            ]
                        },
                        "value": "9737383346"
                    },
                    "reference": "urn:uuid:cc2616f3-0310-4e86-8801-720383e15210"
                },
                "valueCodeableConcept": {
                    "coding": [
                        {
                            "code": "C0162635",
                            "display": "Angelman syndrome",
                            "system": "MedGen-Dis"
                        }
                    ]
                }
            }
        },
        {
            "fullUrl": "urn:uuid:1cab0e28-b928-42e9-96d6-915c5b15e7da",
            "resource": {
                "resourceType": "Observation",
                "code": {
                    "coding": [
                        {
                            "code": "51967-8",
                            "display": "Genetic disease(s) assessed",
                            "system": "http://loinc.org"
                        }
                    ]
                },
                "effectiveDateTime": "2016-08-09T16:50:00+00:00",
                "identifier": [
                    {
                        "assigner": {
                            "identifier": {
                                "system": "https://fhir.nhs.uk/Id/ods-organization-code",
                                "value": "699X0"
                            }
                        },
                        "system": "https://fhir.nwgenomics.nhs.uk/iGene/ReportIdentifier",
                        "type": {
                            "coding": [
                                {
                                    "code": "FILL",
                                    "system": "http://terminology.hl7.org/CodeSystem/v2-0203"
                                }
                            ]
                        },
                        "value": "Gen825750-LRI4"
                    }
                ],
                "performer": [
                    {
                        "identifier": {
                            "system": "https://fhir.nhs.uk/Id/ods-organization-code",
                            "value": "699X0"
                        },
                        "type": "Organization"
                    }
                ],
                "status": "final",
                "subject": {
                    "identifier": {
                        "system": "https://fhir.nhs.uk/Id/nhs-number",
                        "type": {
                            "coding": [
                                {
                                    "code": "NH",
                                    "system": "http://terminology.hl7.org/CodeSystem/v2-0203"
                                }
                            ]
                        },
                        "value": "9737383346"
                    },
                    "reference": "urn:uuid:cc2616f3-0310-4e86-8801-720383e15210"
                },
                "valueCodeableConcept": {
                    "coding": [
                        {
                            "code": "C2748910",
                            "display": "Atypical Rett syndrome",
                            "system": "MedGen-Dis"
                        }
                    ]
                }
            }
        },
        {
            "fullUrl": "urn:uuid:d1a3bcf4-49b3-403e-bab2-ffa3099c1ed4",
            "resource": {
                "resourceType": "Observation",
                "code": {
                    "coding": [
                        {
                            "code": "48018-6",
                            "display": "Gene studied",
                            "system": "http://loinc.org"
                        }
                    ]
                },
                "effectiveDateTime": "2016-08-09T16:50:00+00:00",
                "identifier": [
                    {
                        "assigner": {
                            "identifier": {
                                "system": "https://fhir.nhs.uk/Id/ods-organization-code",
                                "value": "699X0"
                            }
                        },
                        "system": "https://fhir.nwgenomics.nhs.uk/iGene/ReportIdentifier",
                        "type": {
                            "coding": [
                                {
                                    "code": "FILL",
                                    "system": "http://terminology.hl7.org/CodeSystem/v2-0203"
                                }
                            ]
                        },
                        "value": "Gen825750-LRI4"
                    }
                ],
                "performer": [
                    {
                        "identifier": {
                            "system": "https://fhir.nhs.uk/Id/ods-organization-code",
                            "value": "699X0"
                        },
                        "type": "Organization"
                    }
                ],
                "status": "final",
                "subject": {
                    "identifier": {
                        "system": "https://fhir.nhs.uk/Id/nhs-number",
                        "type": {
                            "coding": [
                                {
                                    "code": "NH",
                                    "system": "http://terminology.hl7.org/CodeSystem/v2-0203"
                                }
                            ]
                        },
                        "value": "9737383346"
                    },
                    "reference": "urn:uuid:cc2616f3-0310-4e86-8801-720383e15210"
                },
                "valueCodeableConcept": {
                    "coding": [
                        {
                            "code": "291",
                            "display": "ADSL",
                            "system": "http://www.genenames.org"
                        }
                    ]
                }
            }
        },
        {
            "fullUrl": "urn:uuid:0a889c1a-6356-4522-b0ec-93de924af64a",
            "resource": {
                "resourceType": "Observation",
                "code": {
                    "coding": [
                        {
                            "code": "48018-6",
                            "display": "Gene studied",
                            "system": "http://loinc.org"
                        }
                    ]
                },
                "effectiveDateTime": "2016-08-09T16:50:00+00:00",
                "identifier": [
                    {
                        "assigner": {
                            "identifier": {
                                "system": "https://fhir.nhs.uk/Id/ods-organization-code",
                                "value": "699X0"
                            }
                        },
                        "system": "https://fhir.nwgenomics.nhs.uk/iGene/ReportIdentifier",
                        "type": {
                            "coding": [
                                {
                                    "code": "FILL",
                                    "system": "http://terminology.hl7.org/CodeSystem/v2-0203"
                                }
                            ]
                        },
                        "value": "Gen825750-LRI4"
                    }
                ],
                "performer": [
                    {
                        "identifier": {
                            "system": "https://fhir.nhs.uk/Id/ods-organization-code",
                            "value": "699X0"
                        },
                        "type": "Organization"
                    }
                ],
                "status": "final",
                "subject": {
                    "identifier": {
                        "system": "https://fhir.nhs.uk/Id/nhs-number",
                        "type": {
                            "coding": [
                                {
                                    "code": "NH",
                                    "system": "http://terminology.hl7.org/CodeSystem/v2-0203"
                                }
                            ]
                        },
                        "value": "9737383346"
                    },
                    "reference": "urn:uuid:cc2616f3-0310-4e86-8801-720383e15210"
                },
                "valueCodeableConcept": {
                    "coding": [
                        {
                            "code": "877",
                            "display": "ALDH7A1",
                            "system": "http://www.genenames.org"
                        }
                    ]
                }
            }
        },
        {
            "fullUrl": "urn:uuid:faacd688-e52c-4366-9704-1d2acf291531",
            "resource": {
                "resourceType": "Observation",
                "code": {
                    "coding": [
                        {
                            "code": "48018-6",
                            "display": "Gene studied",
                            "system": "http://loinc.org"
                        }
                    ]
                },
                "effectiveDateTime": "2016-08-09T16:50:00+00:00",
                "identifier": [
                    {
                        "assigner": {
                            "identifier": {
                                "system": "https://fhir.nhs.uk/Id/ods-organization-code",
                                "value": "699X0"
                            }
                        },
                        "system": "https://fhir.nwgenomics.nhs.uk/iGene/ReportIdentifier",
                        "type": {
                            "coding": [
                                {
                                    "code": "FILL",
                                    "system": "http://terminology.hl7.org/CodeSystem/v2-0203"
                                }
                            ]
                        },
                        "value": "Gen825750-LRI4"
                    }
                ],
                "performer": [
                    {
                        "identifier": {
                            "system": "https://fhir.nhs.uk/Id/ods-organization-code",
                            "value": "699X0"
                        },
                        "type": "Organization"
                    }
                ],
                "status": "final",
                "subject": {
                    "identifier": {
                        "system": "https://fhir.nhs.uk/Id/nhs-number",
                        "type": {
                            "coding": [
                                {
                                    "code": "NH",
                                    "system": "http://terminology.hl7.org/CodeSystem/v2-0203"
                                }
                            ]
                        },
                        "value": "9737383346"
                    },
                    "reference": "urn:uuid:cc2616f3-0310-4e86-8801-720383e15210"
                },
                "valueCodeableConcept": {
                    "coding": [
                        {
                            "code": "30881",
                            "display": "ALG13",
                            "system": "http://www.genenames.org"
                        }
                    ]
                }
            }
        },
        {
            "fullUrl": "urn:uuid:9399cdeb-dee4-4150-a94f-926f4ad90b4d",
            "resource": {
                "resourceType": "Observation",
                "code": {
                    "coding": [
                        {
                            "code": "48018-6",
                            "display": "Gene studied",
                            "system": "http://loinc.org"
                        }
                    ]
                },
                "effectiveDateTime": "2016-08-09T16:50:00+00:00",
                "identifier": [
                    {
                        "assigner": {
                            "identifier": {
                                "system": "https://fhir.nhs.uk/Id/ods-organization-code",
                                "value": "699X0"
                            }
                        },
                        "system": "https://fhir.nwgenomics.nhs.uk/iGene/ReportIdentifier",
                        "type": {
                            "coding": [
                                {
                                    "code": "FILL",
                                    "system": "http://terminology.hl7.org/CodeSystem/v2-0203"
                                }
                            ]
                        },
                        "value": "Gen825750-LRI4"
                    }
                ],
                "performer": [
                    {
                        "identifier": {
                            "system": "https://fhir.nhs.uk/Id/ods-organization-code",
                            "value": "699X0"
                        },
                        "type": "Organization"
                    }
                ],
                "status": "final",
                "subject": {
                    "identifier": {
                        "system": "https://fhir.nhs.uk/Id/nhs-number",
                        "type": {
                            "coding": [
                                {
                                    "code": "NH",
                                    "system": "http://terminology.hl7.org/CodeSystem/v2-0203"
                                }
                            ]
                        },
                        "value": "9737383346"
                    },
                    "reference": "urn:uuid:cc2616f3-0310-4e86-8801-720383e15210"
                },
                "valueCodeableConcept": {
                    "coding": [
                        {
                            "code": "14561",
                            "display": "ARHGEF9",
                            "system": "http://www.genenames.org"
                        }
                    ]
                }
            }
        },
        {
            "fullUrl": "urn:uuid:7dbc3b4b-2dc5-4373-b0b8-7db37733b487",
            "resource": {
                "resourceType": "Observation",
                "code": {
                    "coding": [
                        {
                            "code": "48018-6",
                            "display": "Gene studied",
                            "system": "http://loinc.org"
                        }
                    ]
                },
                "effectiveDateTime": "2016-08-09T16:50:00+00:00",
                "identifier": [
                    {
                        "assigner": {
                            "identifier": {
                                "system": "https://fhir.nhs.uk/Id/ods-organization-code",
                                "value": "699X0"
                            }
                        },
                        "system": "https://fhir.nwgenomics.nhs.uk/iGene/ReportIdentifier",
                        "type": {
                            "coding": [
                                {
                                    "code": "FILL",
                                    "system": "http://terminology.hl7.org/CodeSystem/v2-0203"
                                }
                            ]
                        },
                        "value": "Gen825750-LRI4"
                    }
                ],
                "performer": [
                    {
                        "identifier": {
                            "system": "https://fhir.nhs.uk/Id/ods-organization-code",
                            "value": "699X0"
                        },
                        "type": "Organization"
                    }
                ],
                "status": "final",
                "subject": {
                    "identifier": {
                        "system": "https://fhir.nhs.uk/Id/nhs-number",
                        "type": {
                            "coding": [
                                {
                                    "code": "NH",
                                    "system": "http://terminology.hl7.org/CodeSystem/v2-0203"
                                }
                            ]
                        },
                        "value": "9737383346"
                    },
                    "reference": "urn:uuid:cc2616f3-0310-4e86-8801-720383e15210"
                },
                "valueCodeableConcept": {
                    "coding": [
                        {
                            "code": "18060",
                            "display": "ARX",
                            "system": "http://www.genenames.org"
                        }
                    ]
                }
            }
        },
        {
            "fullUrl": "urn:uuid:d73149c5-415f-4b82-90b0-d1b3311a0390",
            "resource": {
                "resourceType": "Observation",
                "code": {
                    "coding": [
                        {
                            "code": "51968-6",
                            "display": "Discrete variation analysis overall interpretation",
                            "system": "http://loinc.org"
                        }
                    ]
                },
                "effectiveDateTime": "2016-08-09T16:50:00+00:00",
                "identifier": [
                    {
                        "assigner": {
                            "identifier": {
                                "system": "https://fhir.nhs.uk/Id/ods-organization-code",
                                "value": "699X0"
                            }
                        },
                        "system": "https://fhir.nwgenomics.nhs.uk/iGene/ReportIdentifier",
                        "type": {
                            "coding": [
                                {
                                    "code": "FILL",
                                    "system": "http://terminology.hl7.org/CodeSystem/v2-0203"
                                }
                            ]
                        },
                        "value": "Gen825750-LRI4"
                    }
                ],
                "performer": [
                    {
                        "identifier": {
                            "system": "https://fhir.nhs.uk/Id/ods-organization-code",
                            "value": "699X0"
                        },
                        "type": "Organization"
                    }
                ],
                "status": "final",
                "subject": {
                    "identifier": {
                        "system": "https://fhir.nhs.uk/Id/nhs-number",
                        "type": {
                            "coding": [
                                {
                                    "code": "NH",
                                    "system": "http://terminology.hl7.org/CodeSystem/v2-0203"
                                }
                            ]
                        },
                        "value": "9737383346"
                    },
                    "reference": "urn:uuid:cc2616f3-0310-4e86-8801-720383e15210"
                },
                "valueCodeableConcept": {
                    "coding": [
                        {
                            "code": "LA6576-8",
                            "display": "Positive",
                            "system": "http://loinc.org"
                        }
                    ]
                }
            }
        },
        {
            "fullUrl": "urn:uuid:aa38e568-0334-4296-be51-aac374a0dae0",
            "resource": {
                "resourceType": "Observation",
                "code": {
                    "coding": [
                        {
                            "code": "83006-7",
                            "display": "Deletion-duplication overall interpretation",
                            "system": "http://loinc.org"
                        }
                    ]
                },
                "effectiveDateTime": "2016-08-09T16:50:00+00:00",
                "identifier": [
                    {
                        "assigner": {
                            "identifier": {
                                "system": "https://fhir.nhs.uk/Id/ods-organization-code",
                                "value": "699X0"
                            }
                        },
                        "system": "https://fhir.nwgenomics.nhs.uk/iGene/ReportIdentifier",
                        "type": {
                            "coding": [
                                {
                                    "code": "FILL",
                                    "system": "http://terminology.hl7.org/CodeSystem/v2-0203"
                                }
                            ]
                        },
                        "value": "Gen825750-LRI4"
                    }
                ],
                "performer": [
                    {
                        "identifier": {
                            "system": "https://fhir.nhs.uk/Id/ods-organization-code",
                            "value": "699X0"
                        },
                        "type": "Organization"
                    }
                ],
                "status": "final",
                "subject": {
                    "identifier": {
                        "system": "https://fhir.nhs.uk/Id/nhs-number",
                        "type": {
                            "coding": [
                                {
                                    "code": "NH",
                                    "system": "http://terminology.hl7.org/CodeSystem/v2-0203"
                                }
                            ]
                        },
                        "value": "9737383346"
                    },
                    "reference": "urn:uuid:cc2616f3-0310-4e86-8801-720383e15210"
                },
                "valueCodeableConcept": {
                    "coding": [
                        {
                            "code": "LA26803-9",
                            "display": "No deletion duplications detected in studied regions",
                            "system": "http://loinc.org"
                        }
                    ]
                }
            }
        },
        {
            "fullUrl": "urn:uuid:5b27e162-fb1a-4dd1-bcef-6948b7933bd0",
            "resource": {
                "resourceType": "Binary",
                "contentType": "application/pdf",
                "data": ""
            }
        },
        {
            "fullUrl": "urn:uuid:8abb2404-09fc-41b0-a1c7-85f56d8473b8",
            "resource": {
                "resourceType": "DocumentReference",
                "content": [
                    {
                        "attachment": {
                            "contentType": "application/pdf",
                            "url": "urn:uuid:5b27e162-fb1a-4dd1-bcef-6948b7933bd0"
                        }
                    }
                ],
                "context": {
                    "period": {
                        "end": "2016-08-09T16:50:00+00:00",
                        "start": "2016-08-09T16:50:00+00:00"
                    },
                    "related": [
                        {
                            "identifier": {
                                "assigner": {
                                    "identifier": {
                                        "system": "https://fhir.nhs.uk/Id/ods-organization-code",
                                        "value": "RBS"
                                    }
                                },
                                "type": {
                                    "coding": [
                                        {
                                            "code": "PLAC",
                                            "system": "http://terminology.hl7.org/CodeSystem/v2-0203"
                                        }
                                    ]
                                },
                                "value": "LRI-5280001671"
                            },
                            "reference": "urn:uuid:0b67da25-25dc-445c-aca8-fac4e1de0dd6",
                            "type": "ServiceRequest"
                        },
                        {
                            "identifier": {
                                "assigner": {
                                    "identifier": {
                                        "system": "https://fhir.nhs.uk/Id/ods-organization-code",
                                        "value": "699X0"
                                    }
                                },
                                "system": "https://fhir.nwgenomics.nhs.uk/iGene/ReportIdentifier",
                                "type": {
                                    "coding": [
                                        {
                                            "code": "FILL",
                                            "system": "http://terminology.hl7.org/CodeSystem/v2-0203"
                                        }
                                    ]
                                },
                                "value": "Gen825750-LRI4"
                            },
                            "reference": "urn:uuid:27878aff-b773-4f56-97d9-83a7c98af40a",
                            "type": "DiagnosticReport"
                        }
                    ],
                    "sourcePatientInfo": {
                        "identifier": {
                            "assigner": {
                                "identifier": {
                                    "system": "https://fhir.nhs.uk/Id/ods-organization-code",
                                    "value": "RBS"
                                }
                            },
                            "system": "http://www.acme.org/patient/identifier",
                            "type": {
                                "coding": [
                                    {
                                        "code": "MR",
                                        "system": "http://terminology.hl7.org/CodeSystem/v2-0203"
                                    }
                                ]
                            },
                            "value": "B67890"
                        }
                    }
                },
                "custodian": {
                    "identifier": {
                        "system": "https://fhir.nhs.uk/Id/ods-organization-code",
                        "value": "699X0"
                    },
                    "type": "Organization"
                },
                "date": "2016-08-09T16:50:00+00:00",
                "identifier": [
                    {
                        "assigner": {
                            "identifier": {
                                "system": "https://fhir.nhs.uk/Id/ods-organization-code",
                                "value": "699X0"
                            }
                        },
                        "system": "https://fhir.nwgenomics.nhs.uk/iGene/ReportIdentifier",
                        "type": {
                            "coding": [
                                {
                                    "code": "FILL",
                                    "system": "http://terminology.hl7.org/CodeSystem/v2-0203"
                                }
                            ]
                        },
                        "value": "Gen825750-LRI4"
                    }
                ],
                "status": "current",
                "subject": {
                    "identifier": {
                        "system": "https://fhir.nhs.uk/Id/nhs-number",
                        "type": {
                            "coding": [
                                {
                                    "code": "NH",
                                    "system": "http://terminology.hl7.org/CodeSystem/v2-0203"
                                }
                            ]
                        },
                        "value": "9737383346"
                    },
                    "reference": "urn:uuid:cc2616f3-0310-4e86-8801-720383e15210"
                },
                "type": {
                    "coding": [
                        {
                            "code": "1054161000000101",
                            "display": "Genetic report",
                            "system": "http://snomed.info/sct"
                        }
                    ]
                }
            }
        },
        {
            "fullUrl": "urn:uuid:b27f6dd5-3c73-440e-9172-6df7dff9b201",
            "resource": {
                "resourceType": "Observation",
                "code": {
                    "coding": [
                        {
                            "code": "81293-3",
                            "display": "Description of ranges of DNA sequences examined",
                            "system": "http://loinc.org"
                        }
                    ]
                },
                "effectiveDateTime": "2016-08-09T16:50:00+00:00",
                "identifier": [
                    {
                        "assigner": {
                            "identifier": {
                                "system": "https://fhir.nhs.uk/Id/ods-organization-code",
                                "value": "699X0"
                            }
                        },
                        "system": "https://fhir.nwgenomics.nhs.uk/iGene/ReportIdentifier",
                        "type": {
                            "coding": [
                                {
                                    "code": "FILL",
                                    "system": "http://terminology.hl7.org/CodeSystem/v2-0203"
                                }
                            ]
                        },
                        "value": "Gen825750-LRI4"
                    }
                ],
                "performer": [
                    {
                        "identifier": {
                            "system": "https://fhir.nhs.uk/Id/ods-organization-code",
                            "value": "699X0"
                        },
                        "type": "Organization"
                    }
                ],
                "status": "final",
                "subject": {
                    "identifier": {
                        "system": "https://fhir.nhs.uk/Id/nhs-number",
                        "type": {
                            "coding": [
                                {
                                    "code": "NH",
                                    "system": "http://terminology.hl7.org/CodeSystem/v2-0203"
                                }
                            ]
                        },
                        "value": "9737383346"
                    },
                    "reference": "urn:uuid:cc2616f3-0310-4e86-8801-720383e15210"
                },
                "valueString": "The sequencing component of the test includes all genes listed above except for CHRNA7 and MAGI2, since only large deletions have been reported in these genes."
            }
        },
        {
            "fullUrl": "urn:uuid:99451e65-8874-4dd3-918e-8c29bbd98df7",
            "resource": {
                "resourceType": "Observation",
                "code": {
                    "coding": [
                        {
                            "code": "62374-4",
                            "display": "Human reference sequence assembly",
                            "system": "http://loinc.org"
                        }
                    ]
                },
                "effectiveDateTime": "2016-08-09T16:50:00+00:00",
                "identifier": [
                    {
                        "assigner": {
                            "identifier": {
                                "system": "https://fhir.nhs.uk/Id/ods-organization-code",
                                "value": "699X0"
                            }
                        },
                        "system": "https://fhir.nwgenomics.nhs.uk/iGene/ReportIdentifier",
                        "type": {
                            "coding": [
                                {
                                    "code": "FILL",
                                    "system": "http://terminology.hl7.org/CodeSystem/v2-0203"
                                }
                            ]
                        },
                        "value": "Gen825750-LRI4"
                    }
                ],
                "performer": [
                    {
                        "identifier": {
                            "system": "https://fhir.nhs.uk/Id/ods-organization-code",
                            "value": "699X0"
                        },
                        "type": "Organization"
                    }
                ],
                "status": "final",
                "subject": {
                    "identifier": {
                        "system": "https://fhir.nhs.uk/Id/nhs-number",
                        "type": {
                            "coding": [
                                {
                                    "code": "NH",
                                    "system": "http://terminology.hl7.org/CodeSystem/v2-0203"
                                }
                            ]
                        },
                        "value": "9737383346"
                    },
                    "reference": "urn:uuid:cc2616f3-0310-4e86-8801-720383e15210"
                },
                "valueCodeableConcept": {
                    "coding": [
                        {
                            "code": "LA14029-5",
                            "display": "GRCh37",
                            "system": "http://loinc.org"
                        }
                    ]
                }
            }
        },
        {
            "fullUrl": "urn:uuid:c038beb1-2c1c-4b01-85a7-9cd5e8e64858",
            "resource": {
                "resourceType": "Observation",
                "code": {
                    "coding": [
                        {
                            "code": "82115-7",
                            "display": "dbSNP version",
                            "system": "http://loinc.org"
                        }
                    ]
                },
                "effectiveDateTime": "2016-08-09T16:50:00+00:00",
                "identifier": [
                    {
                        "assigner": {
                            "identifier": {
                                "system": "https://fhir.nhs.uk/Id/ods-organization-code",
                                "value": "699X0"
                            }
                        },
                        "system": "https://fhir.nwgenomics.nhs.uk/iGene/ReportIdentifier",
                        "type": {
                            "coding": [
                                {
                                    "code": "FILL",
                                    "system": "http://terminology.hl7.org/CodeSystem/v2-0203"
                                }
                            ]
                        },
                        "value": "Gen825750-LRI4"
                    }
                ],
                "performer": [
                    {
                        "identifier": {
                            "system": "https://fhir.nhs.uk/Id/ods-organization-code",
                            "value": "699X0"
                        },
                        "type": "Organization"
                    }
                ],
                "status": "final",
                "subject": {
                    "identifier": {
                        "system": "https://fhir.nhs.uk/Id/nhs-number",
                        "type": {
                            "coding": [
                                {
                                    "code": "NH",
                                    "system": "http://terminology.hl7.org/CodeSystem/v2-0203"
                                }
                            ]
                        },
                        "value": "9737383346"
                    },
                    "reference": "urn:uuid:cc2616f3-0310-4e86-8801-720383e15210"
                },
                "valueQuantity": {
                    "system": "http://unitsofmeasure.org",
                    "unit": "Attributes of First Discrete Genetic Variants: Report Section 2",
                    "value": 147
                }
            }
        },
        {
            "fullUrl": "urn:uuid:c4369e99-ed9d-4969-981a-4e36bea86fbd",
            "resource": {
                "resourceType": "Observation",
                "category": [
                    {
                        "coding": [
                            {
                                "code": "laboratory",
                                "system": "http://terminology.hl7.org/CodeSystem/observation-category"
                            }
                        ]
                    },
                    {
                        "coding": [
                            {
                                "code": "GE",
                                "system": "http://terminology.hl7.org/CodeSystem/v2-0074"
                            }
                        ]
                    },
                    {
                        "coding": [
                            {
                                "code": "LA26801-3",
                                "display": "SimpleVariant",
                                "system": "http://loinc.org"
                            }
                        ]
                    }
                ],
                "code": {
                    "coding": [
                        {
                            "code": "69548-6",
                            "display": "Genetic variant assessment",
                            "system": "http://loinc.org"
                        }
                    ]
                },
                "component": [
                    {
                        "code": {
                            "coding": [
                                {
                                    "code": "81252-9",
                                    "display": "Discrete genetic variant",
                                    "system": "http://loinc.org"
                                }
                            ]
                        },
                        "valueCodeableConcept": {
                            "coding": [
                                {
                                    "code": "No-Variant-ID",
                                    "display": "NM_007254.3(PNKP):c.1315C>T(p.Arg439Ter)",
                                    "system": "http://www.ncbi.nlm.nih.gov/clinvar"
                                }
                            ]
                        }
                    },
                    {
                        "code": {
                            "coding": [
                                {
                                    "code": "48018-6",
                                    "display": "Gene studied",
                                    "system": "http://loinc.org"
                                }
                            ]
                        },
                        "valueCodeableConcept": {
                            "coding": [
                                {
                                    "code": "9154",
                                    "display": "PNKP",
                                    "system": "http://www.genenames.org"
                                }
                            ]
                        }
                    },
                    {
                        "code": {
                            "coding": [
                                {
                                    "code": "51958-7",
                                    "display": "Transcript RefSeq ID",
                                    "system": "http://loinc.org"
                                }
                            ]
                        },
                        "valueCodeableConcept": {
                            "coding": [
                                {
                                    "code": "NM_007254.3",
                                    "display": "NM_007254.3",
                                    "system": "http://www.ncbi.nlm.nih.gov/refseq"
                                }
                            ]
                        }
                    },
                    {
                        "code": {
                            "coding": [
                                {
                                    "code": "41103-3",
                                    "display": "Transcript DNA Change (cHGVS)",
                                    "system": "http://loinc.org"
                                }
                            ]
                        },
                        "valueCodeableConcept": {
                            "coding": [
                                {
                                    "code": "c.610C>T",
                                    "display": "c.1315C>T",
                                    "system": "http://varnomen.hgvs.org"
                                }
                            ]
                        }
                    },
                    {
                        "code": {
                            "coding": [
                                {
                                    "code": "48005-3",
                                    "display": "Amino acid change p.HGVS",
                                    "system": "http://loinc.org"
                                }
                            ]
                        },
                        "valueCodeableConcept": {
                            "coding": [
                                {
                                    "code": "p.Arg204Ter",
                                    "display": "p.Arg439Ter",
                                    "system": "http://varnomen.hgvs.org"
                                }
                            ]
                        }
                    },
                    {
                        "code": {
                            "coding": [
                                {
                                    "code": "48019-4",
                                    "display": "DNA change type",
                                    "system": "http://loinc.org"
                                }
                            ]
                        },
                        "valueCodeableConcept": {
                            "coding": [
                                {
                                    "code": "LA6690-7",
                                    "display": "Substitution",
                                    "system": "http://loinc.org"
                                }
                            ]
                        }
                    },
                    {
                        "code": {
                            "coding": [
                                {
                                    "code": "48006-1",
                                    "display": "Amino acid change type",
                                    "system": "http://loinc.org"
                                }
                            ]
                        },
                        "valueCodeableConcept": {
                            "coding": [
                                {
                                    "code": "LA6699-8",
                                    "display": "Nonsense",
                                    "system": "http://loinc.org"
                                }
                            ]
                        }
                    },
                    {
                        "code": {
                            "coding": [
                                {
                                    "code": "81290-9",
                                    "display": "Genomic DNA change (gHGVS)",
                                    "system": "http://loinc.org"
                                }
                            ]
                        },
                        "valueCodeableConcept": {
                            "coding": [
                                {
                                    "code": "NC_000019.9",
                                    "display": "NC_000019.9",
                                    "system": "http://www.ncbi.nlm.nih.gov/refseq"
                                }
                            ]
                        }
                    },
                    {
                        "code": {
                            "coding": [
                                {
                                    "code": "69547-8",
                                    "display": "Genomic ref allele",
                                    "system": "http://loinc.org"
                                }
                            ]
                        },
                        "valueString": "G"
                    },
                    {
                        "code": {
                            "coding": [
                                {
                                    "code": "81254-5",
                                    "display": "Genomic allele start-end",
                                    "system": "http://loinc.org"
                                }
                            ]
                        },
                        "valueRange": {
                            "high": {
                                "system": "http://unitsofmeasure.org",
                                "value": 50367462
                            },
                            "low": {
                                "system": "http://unitsofmeasure.org",
                                "value": 50367462
                            }
                        }
                    },
                    {
                        "code": {
                            "coding": [
                                {
                                    "code": "69551-0",
                                    "display": "Genomic alt allele",
                                    "system": "http://loinc.org"
                                }
                            ]
                        },
                        "valueString": "A"
                    },
                    {
                        "code": {
                            "coding": [
                                {
                                    "code": "81255-2",
                                    "display": "dbSNP ID",
                                    "system": "http://loinc.org"
                                }
                            ]
                        },
                        "valueCodeableConcept": {
                            "coding": [
                                {
                                    "code": "rs796052850",
                                    "display": "rs796052850",
                                    "system": "http://www.ncbi.nlm.nih.gov/projects/SNP"
                                }
                            ]
                        }
                    },
                    {
                        "code": {
                            "coding": [
                                {
                                    "code": "48001-2",
                                    "display": "Cytogenetic (chromosome) location",
                                    "system": "http://loinc.org"
                                }
                            ]
                        },
                        "valueCodeableConcept": {
                            "coding": [
                                {
                                    "code": "19q13.33",
                                    "display": "19q13.33",
                                    "system": "Chrom-Loc"
                                }
                            ]
                        }
                    },
                    {
                        "code": {
                            "coding": [
                                {
                                    "code": "48002-0",
                                    "display": "Genomic source class",
                                    "system": "http://loinc.org"
                                }
                            ]
                        },
                        "valueCodeableConcept": {
                            "coding": [
                                {
                                    "code": "LA6683-2",
                                    "display": "Germline",
                                    "system": "http://loinc.org"
                                }
                            ]
                        }
                    },
                    {
                        "code": {
                            "coding": [
                                {
                                    "code": "53037-8",
                                    "display": "Genetic variation clinical significance",
                                    "system": "http://loinc.org"
                                }
                            ]
                        },
                        "valueCodeableConcept": {
                            "coding": [
                                {
                                    "code": "LA6668-3",
                                    "display": "Pathogenic",
                                    "system": "http://loinc.org"
                                }
                            ]
                        }
                    },
                    {
                        "code": {
                            "coding": [
                                {
                                    "code": "69548-6",
                                    "display": "Genomic variant assessment",
                                    "system": "http://loinc.org"
                                }
                            ]
                        },
                        "valueCodeableConcept": {
                            "coding": [
                                {
                                    "code": "LA9633-4",
                                    "display": "Present",
                                    "system": "http://loinc.org"
                                }
                            ]
                        }
                    },
                    {
                        "code": {
                            "coding": [
                                {
                                    "code": "53034-5",
                                    "display": "Allelic state",
                                    "system": "http://loinc.org"
                                }
                            ]
                        },
                        "valueCodeableConcept": {
                            "coding": [
                                {
                                    "code": "LA6706-1",
                                    "display": "Heterozygous",
                                    "system": "http://loinc.org"
                                }
                            ]
                        }
                    }
                ],
                "effectiveDateTime": "2016-08-09T16:50:00+00:00",
                "identifier": [
                    {
                        "assigner": {
                            "identifier": {
                                "system": "https://fhir.nhs.uk/Id/ods-organization-code",
                                "value": "699X0"
                            }
                        },
                        "system": "https://fhir.nwgenomics.nhs.uk/iGene/ReportIdentifier",
                        "type": {
                            "coding": [
                                {
                                    "code": "FILL",
                                    "system": "http://terminology.hl7.org/CodeSystem/v2-0203"
                                }
                            ]
                        },
                        "value": "Gen825750-LRI4"
                    }
                ],
                "meta": {
                    "profile": [
                        "https://fhir.nwgenomics.nhs.uk/StructureDefinition/Variant"
                    ]
                },
                "method": {
                    "coding": [
                        {
                            "code": "LA26400-4",
                            "display": "SNP array",
                            "system": "http://loinc.org"
                        }
                    ]
                },
                "performer": [
                    {
                        "identifier": {
                            "system": "https://fhir.nhs.uk/Id/ods-organization-code",
                            "value": "699X0"
                        },
                        "type": "Organization"
                    }
                ],
                "status": "final",
                "subject": {
                    "identifier": {
                        "system": "https://fhir.nhs.uk/Id/nhs-number",
                        "type": {
                            "coding": [
                                {
                                    "code": "NH",
                                    "system": "http://terminology.hl7.org/CodeSystem/v2-0203"
                                }
                            ]
                        },
                        "value": "9737383346"
                    },
                    "reference": "urn:uuid:cc2616f3-0310-4e86-8801-720383e15210"
                },
                "valueCodeableConcept": {
                    "coding": [
                        {
                            "code": "9154",
                            "display": "PNKP",
                            "system": "http://www.genenames.org"
                        }
                    ]
                }
            }
        },
        {
            "fullUrl": "urn:uuid:929825c7-ab95-45c0-9861-113159aa5416",
            "resource": {
                "resourceType": "Observation",
                "category": [
                    {
                        "coding": [
                            {
                                "code": "laboratory",
                                "system": "http://terminology.hl7.org/CodeSystem/observation-category"
                            }
                        ]
                    },
                    {
                        "coding": [
                            {
                                "code": "GE",
                                "system": "http://terminology.hl7.org/CodeSystem/v2-0074"
                            }
                        ]
                    }
                ],
                "code": {
                    "coding": [
                        {
                            "code": "412731001",
                            "display": "Genetic finding detected",
                            "system": "http://snomed.info/sct"
                        },
                        {
                            "code": "diagnostic-implication",
                            "system": "http://hl7.org/fhir/uv/genomics-reporting/CodeSystem/tbd-codes-cs"
                        },
                        {
                            "code": "CN218420",
                            "display": "Developmental delay AND/OR other significant developmental or morphological phenotypes",
                            "system": "MedGen-Dis"
                        }
                    ]
                },
                "component": [
                    {
                        "code": {
                            "coding": [
                                {
                                    "code": "81259-4",
                                    "display": "Probable associated phenotype",
                                    "system": "http://loinc.org"
                                }
                            ]
                        },
                        "valueCodeableConcept": {
                            "coding": [
                                {
                                    "code": "CN218420",
                                    "display": "Developmental delay AND/OR other significant developmental or morphological phenotypes",
                                    "system": "MedGen-Dis"
                                }
                            ]
                        }
                    },
                    {
                        "code": {
                            "coding": [
                                {
                                    "code": "53037-8",
                                    "display": "Genetic variation clinical significance",
                                    "system": "http://loinc.org"
                                }
                            ]
                        },
                        "valueCodeableConcept": {
                            "coding": [
                                {
                                    "code": "LA6671-7",
                                    "display": "Uncertain Significance",
                                    "system": "http://loinc.org"
                                }
                            ]
                        }
                    }
                ],
                "derivedFrom": [
                    {
                        "reference": "urn:uuid:c4369e99-ed9d-4969-981a-4e36bea86fbd",
                        "type": "Observation"
                    }
                ],
                "effectiveDateTime": "2016-08-09T16:50:00+00:00",
                "identifier": [
                    {
                        "assigner": {
                            "identifier": {
                                "system": "https://fhir.nhs.uk/Id/ods-organization-code",
                                "value": "699X0"
                            }
                        },
                        "system": "https://fhir.nwgenomics.nhs.uk/iGene/ReportIdentifier",
                        "type": {
                            "coding": [
                                {
                                    "code": "FILL",
                                    "system": "http://terminology.hl7.org/CodeSystem/v2-0203"
                                }
                            ]
                        },
                        "value": "Gen825750-LRI4"
                    }
                ],
                "meta": {
                    "profile": [
                        "https://fhir.nwgenomics.nhs.uk/StructureDefinition/DiagnosticImplication"
                    ]
                },
                "performer": [
                    {
                        "identifier": {
                            "system": "https://fhir.nhs.uk/Id/ods-organization-code",
                            "value": "699X0"
                        },
                        "type": "Organization"
                    }
                ],
                "status": "final",
                "subject": {
                    "identifier": {
                        "system": "https://fhir.nhs.uk/Id/nhs-number",
                        "type": {
                            "coding": [
                                {
                                    "code": "NH",
                                    "system": "http://terminology.hl7.org/CodeSystem/v2-0203"
                                }
                            ]
                        },
                        "value": "9737383346"
                    },
                    "reference": "urn:uuid:cc2616f3-0310-4e86-8801-720383e15210"
                }
            }
        },
        {
            "fullUrl": "urn:uuid:acb8e98f-9ce0-4da3-b5c2-9a7901498167",
            "resource": {
                "resourceType": "Observation",
                "category": [
                    {
                        "coding": [
                            {
                                "code": "laboratory",
                                "system": "http://terminology.hl7.org/CodeSystem/observation-category"
                            }
                        ]
                    },
                    {
                        "coding": [
                            {
                                "code": "GE",
                                "system": "http://terminology.hl7.org/CodeSystem/v2-0074"
                            }
                        ]
                    },
                    {
                        "coding": [
                            {
                                "code": "LA26801-3",
                                "display": "Simple Variant",
                                "system": "http://loinc.org"
                            }
                        ]
                    }
                ],
                "code": {
                    "coding": [
                        {
                            "code": "69548-6",
                            "display": "Genetic variant assessment",
                            "system": "http://loinc.org"
                        }
                    ]
                },
                "component": [
                    {
                        "code": {
                            "coding": [
                                {
                                    "code": "81252-9",
                                    "display": "Discrete genetic variant",
                                    "system": "http://loinc.org"
                                }
                            ]
                        },
                        "valueCodeableConcept": {
                            "coding": [
                                {
                                    "code": "130039",
                                    "display": "NM_145239.2(PRRT2):c.67G>A(p.Glu23Lys)",
                                    "system": "http://www.ncbi.nlm.nih.gov/clinvar"
                                }
                            ]
                        }
                    },
                    {
                        "code": {
                            "coding": [
                                {
                                    "code": "48018-6",
                                    "display": "Gene studied",
                                    "system": "http://loinc.org"
                                }
                            ]
                        },
                        "valueCodeableConcept": {
                            "coding": [
                                {
                                    "code": "30500",
                                    "display": "PRRT2",
                                    "system": "http://www.genenames.org"
                                }
                            ]
                        }
                    },
                    {
                        "code": {
                            "coding": [
                                {
                                    "code": "51958-7",
                                    "display": "Transcript RefSeq ID",
                                    "system": "http://loinc.org"
                                }
                            ]
                        },
                        "valueCodeableConcept": {
                            "coding": [
                                {
                                    "code": "NM_145239.2",
                                    "display": "NM_145239.2",
                                    "system": "http://www.ncbi.nlm.nih.gov/refseq"
                                }
                            ]
                        }
                    },
                    {
                        "code": {
                            "coding": [
                                {
                                    "code": "41103-3",
                                    "display": "Transcript DNA Change (cHGVS)",
                                    "system": "http://loinc.org"
                                }
                            ]
                        },
                        "valueCodeableConcept": {
                            "coding": [
                                {
                                    "code": "c.67G>A",
                                    "display": "c.67G>A",
                                    "system": "http://varnomen.hgvs.org"
                                }
                            ]
                        }
                    },
                    {
                        "code": {
                            "coding": [
                                {
                                    "code": "48005-3",
                                    "display": "Amino acid change p.HGVS",
                                    "system": "http://loinc.org"
                                }
                            ]
                        },
                        "valueCodeableConcept": {
                            "coding": [
                                {
                                    "code": "p.Glu23Lys",
                                    "display": "p.Glu23Lys",
                                    "system": "http://varnomen.hgvs.org"
                                }
                            ]
                        }
                    },
                    {
                        "code": {
                            "coding": [
                                {
                                    "code": "48019-4",
                                    "display": "DNA change type",
                                    "system": "http://loinc.org"
                                }
                            ]
                        },
                        "valueCodeableConcept": {
                            "coding": [
                                {
                                    "code": "LA6690-7",
                                    "display": "Substitution",
                                    "system": "http://loinc.org"
                                }
                            ]
                        }
                    },
                    {
                        "code": {
                            "coding": [
                                {
                                    "code": "81290-9",
                                    "display": "Genomic DNA change (gHGVS)",
                                    "system": "http://loinc.org"
                                }
                            ]
                        },
                        "valueCodeableConcept": {
                            "coding": [
                                {
                                    "code": "NC_000016.9",
                                    "display": "NC_000016.9",
                                    "system": "http://www.ncbi.nlm.nih.gov/refseq"
                                }
                            ]
                        }
                    },
                    {
                        "code": {
                            "coding": [
                                {
                                    "code": "69547-8",
                                    "display": "Genomic ref allele",
                                    "system": "http://loinc.org"
                                }
                            ]
                        },
                        "valueString": "G"
                    },
                    {
                        "code": {
                            "coding": [
                                {
                                    "code": "81254-5",
                                    "display": "Genomic allele location",
                                    "system": "http://loinc.org"
                                }
                            ]
                        },
                        "valueRange": {
                            "high": {
                                "system": "http://unitsofmeasure.org",
                                "value": 29824442
                            },
                            "low": {
                                "system": "http://unitsofmeasure.org",
                                "value": 29824442
                            }
                        }
                    },
                    {
                        "code": {
                            "coding": [
                                {
                                    "code": "69551-0",
                                    "display": "Genomic alt allele",
                                    "system": "http://loinc.org"
                                }
                            ]
                        },
                        "valueString": "A"
                    },
                    {
                        "code": {
                            "coding": [
                                {
                                    "code": "81255-2",
                                    "display": "dbSNP ID",
                                    "system": "http://loinc.org"
                                }
                            ]
                        },
                        "valueCodeableConcept": {
                            "coding": [
                                {
                                    "code": "rs140383655",
                                    "display": "rs140383655",
                                    "system": "http://www.ncbi.nlm.nih.gov/projects/SNP"
                                }
                            ]
                        }
                    },
                    {
                        "code": {
                            "coding": [
                                {
                                    "code": "48001-2",
                                    "display": "Cytogenetic (chromosome) location",
                                    "system": "http://loinc.org"
                                }
                            ]
                        },
                        "valueCodeableConcept": {
                            "coding": [
                                {
                                    "code": "16p11.2",
                                    "display": "16p11.2",
                                    "system": "Chrom-Loc"
                                }
                            ]
                        }
                    },
                    {
                        "code": {
                            "coding": [
                                {
                                    "code": "48002-0",
                                    "display": "Genomic source class",
                                    "system": "http://loinc.org"
                                }
                            ]
                        },
                        "valueCodeableConcept": {
                            "coding": [
                                {
                                    "code": "LA6683-2",
                                    "display": "Germline",
                                    "system": "http://loinc.org"
                                }
                            ]
                        }
                    },
                    {
                        "code": {
                            "coding": [
                                {
                                    "code": "53037-8",
                                    "display": "Genetic variation clinical significance",
                                    "system": "http://loinc.org"
                                }
                            ]
                        },
                        "valueCodeableConcept": {
                            "coding": [
                                {
                                    "code": "LA6671-7",
                                    "display": "Uncertain Significance",
                                    "system": "http://loinc.org"
                                }
                            ]
                        }
                    },
                    {
                        "code": {
                            "coding": [
                                {
                                    "code": "69548-6",
                                    "display": "Genomic variant assessment",
                                    "system": "http://loinc.org"
                                }
                            ]
                        },
                        "valueCodeableConcept": {
                            "coding": [
                                {
                                    "code": "LA9633-4",
                                    "display": "Present",
                                    "system": "http://loinc.org"
                                }
                            ]
                        }
                    },
                    {
                        "code": {
                            "coding": [
                                {
                                    "code": "53034-5",
                                    "display": "Allelic state",
                                    "system": "http://loinc.org"
                                }
                            ]
                        },
                        "valueCodeableConcept": {
                            "coding": [
                                {
                                    "code": "LA6706-1",
                                    "display": "Heterozygous",
                                    "system": "http://loinc.org"
                                }
                            ]
                        }
                    }
                ],
                "effectiveDateTime": "2016-08-09T16:50:00+00:00",
                "identifier": [
                    {
                        "assigner": {
                            "identifier": {
                                "system": "https://fhir.nhs.uk/Id/ods-organization-code",
                                "value": "699X0"
                            }
                        },
                        "system": "https://fhir.nwgenomics.nhs.uk/iGene/ReportIdentifier",
                        "type": {
                            "coding": [
                                {
                                    "code": "FILL",
                                    "system": "http://terminology.hl7.org/CodeSystem/v2-0203"
                                }
                            ]
                        },
                        "value": "Gen825750-LRI4"
                    }
                ],
                "meta": {
                    "profile": [
                        "https://fhir.nwgenomics.nhs.uk/StructureDefinition/Variant"
                    ]
                },
                "method": {
                    "coding": [
                        {
                            "code": "LA26400-4",
                            "display": "SNP array",
                            "system": "http://loinc.org"
                        }
                    ]
                },
                "performer": [
                    {
                        "identifier": {
                            "system": "https://fhir.nhs.uk/Id/ods-organization-code",
                            "value": "699X0"
                        },
                        "type": "Organization"
                    }
                ],
                "status": "final",
                "subject": {
                    "identifier": {
                        "system": "https://fhir.nhs.uk/Id/nhs-number",
                        "type": {
                            "coding": [
                                {
                                    "code": "NH",
                                    "system": "http://terminology.hl7.org/CodeSystem/v2-0203"
                                }
                            ]
                        },
                        "value": "9737383346"
                    },
                    "reference": "urn:uuid:cc2616f3-0310-4e86-8801-720383e15210"
                },
                "valueCodeableConcept": {
                    "coding": [
                        {
                            "code": "30500",
                            "display": "PRRT2",
                            "system": "http://www.genenames.org"
                        }
                    ]
                }
            }
        },
        {
            "fullUrl": "urn:uuid:ab9f56f4-903b-4268-a086-c58c08e026f3",
            "resource": {
                "resourceType": "Observation",
                "category": [
                    {
                        "coding": [
                            {
                                "code": "laboratory",
                                "system": "http://terminology.hl7.org/CodeSystem/observation-category"
                            }
                        ]
                    },
                    {
                        "coding": [
                            {
                                "code": "GE",
                                "system": "http://terminology.hl7.org/CodeSystem/v2-0074"
                            }
                        ]
                    }
                ],
                "code": {
                    "coding": [
                        {
                            "code": "412731001",
                            "display": "Genetic finding detected",
                            "system": "http://snomed.info/sct"
                        },
                        {
                            "code": "diagnostic-implication",
                            "system": "http://hl7.org/fhir/uv/genomics-reporting/CodeSystem/tbd-codes-cs"
                        },
                        {
                            "code": "C1510586",
                            "display": "Autism spectrum disorders",
                            "system": "MedGen-Dis"
                        }
                    ]
                },
                "component": [
                    {
                        "code": {
                            "coding": [
                                {
                                    "code": "81259-4",
                                    "display": "Probable associated phenotype",
                                    "system": "http://loinc.org"
                                }
                            ]
                        },
                        "valueCodeableConcept": {
                            "coding": [
                                {
                                    "code": "C1510586",
                                    "display": "Autism spectrum disorders",
                                    "system": "MedGen-Dis"
                                }
                            ]
                        }
                    },
                    {
                        "code": {
                            "coding": [
                                {
                                    "code": "53037-8",
                                    "display": "Genetic variation clinical significance",
                                    "system": "http://loinc.org"
                                }
                            ]
                        },
                        "valueCodeableConcept": {
                            "coding": [
                                {
                                    "code": "LA6674-1",
                                    "display": "Likely Benign",
                                    "system": "http://loinc.org"
                                }
                            ]
                        }
                    },
                    {
                        "code": {
                            "coding": [
                                {
                                    "code": "53037-8",
                                    "display": "Genetic variation clinical significance",
                                    "system": "http://loinc.org"
                                }
                            ]
                        },
                        "valueCodeableConcept": {
                            "coding": [
                                {
                                    "code": "LA6671-7",
                                    "display": "Uncertain Significance",
                                    "system": "http://loinc.org"
                                }
                            ]
                        }
                    }
                ],
                "derivedFrom": [
                    {
                        "reference": "urn:uuid:acb8e98f-9ce0-4da3-b5c2-9a7901498167",
                        "type": "Observation"
                    }
                ],
                "effectiveDateTime": "2016-08-09T16:50:00+00:00",
                "identifier": [
                    {
                        "assigner": {
                            "identifier": {
                                "system": "https://fhir.nhs.uk/Id/ods-organization-code",
                                "value": "699X0"
                            }
                        },
                        "system": "https://fhir.nwgenomics.nhs.uk/iGene/ReportIdentifier",
                        "type": {
                            "coding": [
                                {
                                    "code": "FILL",
                                    "system": "http://terminology.hl7.org/CodeSystem/v2-0203"
                                }
                            ]
                        },
                        "value": "Gen825750-LRI4"
                    }
                ],
                "meta": {
                    "profile": [
                        "https://fhir.nwgenomics.nhs.uk/StructureDefinition/DiagnosticImplication"
                    ]
                },
                "performer": [
                    {
                        "identifier": {
                            "system": "https://fhir.nhs.uk/Id/ods-organization-code",
                            "value": "699X0"
                        },
                        "type": "Organization"
                    }
                ],
                "status": "final",
                "subject": {
                    "identifier": {
                        "system": "https://fhir.nhs.uk/Id/nhs-number",
                        "type": {
                            "coding": [
                                {
                                    "code": "NH",
                                    "system": "http://terminology.hl7.org/CodeSystem/v2-0203"
                                }
                            ]
                        },
                        "value": "9737383346"
                    },
                    "reference": "urn:uuid:cc2616f3-0310-4e86-8801-720383e15210"
                }
            }
        },
        {
            "fullUrl": "urn:uuid:3f4e9e22-2dab-4dc8-94a2-4b1077d68302",
            "resource": {
                "resourceType": "Observation",
                "category": [
                    {
                        "coding": [
                            {
                                "code": "laboratory",
                                "system": "http://terminology.hl7.org/CodeSystem/observation-category"
                            }
                        ]
                    },
                    {
                        "coding": [
                            {
                                "code": "GE",
                                "system": "http://terminology.hl7.org/CodeSystem/v2-0074"
                            }
                        ]
                    },
                    {
                        "coding": [
                            {
                                "code": "LA26801-3",
                                "display": "Simple Variant",
                                "system": "http://loinc.org"
                            }
                        ]
                    }
                ],
                "code": {
                    "coding": [
                        {
                            "code": "69548-6",
                            "display": "Genetic variant assessment",
                            "system": "http://loinc.org"
                        }
                    ]
                },
                "component": [
                    {
                        "code": {
                            "coding": [
                                {
                                    "code": "81252-9",
                                    "display": "Discrete genetic variant",
                                    "system": "http://loinc.org"
                                }
                            ]
                        },
                        "valueCodeableConcept": {
                            "coding": [
                                {
                                    "code": "205776",
                                    "display": "NM_001193466.1(KANSL1):c.727C>A(p.Gln243Lys)",
                                    "system": "http://www.ncbi.nlm.nih.gov/clinvar"
                                }
                            ]
                        }
                    },
                    {
                        "code": {
                            "coding": [
                                {
                                    "code": "48018-6",
                                    "display": "Gene studied",
                                    "system": "http://loinc.org"
                                }
                            ]
                        },
                        "valueCodeableConcept": {
                            "coding": [
                                {
                                    "code": "24565",
                                    "display": "KANSL1",
                                    "system": "http://www.genenames.org"
                                }
                            ]
                        }
                    },
                    {
                        "code": {
                            "coding": [
                                {
                                    "code": "51958-7",
                                    "display": "Transcript RefSeq ID",
                                    "system": "http://loinc.org"
                                }
                            ]
                        },
                        "valueCodeableConcept": {
                            "coding": [
                                {
                                    "code": "NM_001193466.1",
                                    "display": "NM_001193466.1",
                                    "system": "http://www.ncbi.nlm.nih.gov/refseq"
                                }
                            ]
                        }
                    },
                    {
                        "code": {
                            "coding": [
                                {
                                    "code": "41103-3",
                                    "display": "Transcript DNA Change(cHGVS)",
                                    "system": "http://loinc.org"
                                }
                            ]
                        },
                        "valueCodeableConcept": {
                            "coding": [
                                {
                                    "code": "c.727C>A",
                                    "display": "c.727C>A",
                                    "system": "http://varnomen.hgvs.org"
                                }
                            ]
                        }
                    },
                    {
                        "code": {
                            "coding": [
                                {
                                    "code": "48005-3",
                                    "display": "Amino acid change p.HGVS",
                                    "system": "http://loinc.org"
                                }
                            ]
                        },
                        "valueCodeableConcept": {
                            "coding": [
                                {
                                    "code": "p.Gln243Lys",
                                    "display": "p.Gln243Lys",
                                    "system": "http://varnomen.hgvs.org"
                                }
                            ]
                        }
                    },
                    {
                        "code": {
                            "coding": [
                                {
                                    "code": "48019-4",
                                    "display": "DNA change type",
                                    "system": "http://loinc.org"
                                }
                            ]
                        },
                        "valueCodeableConcept": {
                            "coding": [
                                {
                                    "code": "LA6690-7",
                                    "display": "Substitution",
                                    "system": "http://loinc.org"
                                }
                            ]
                        }
                    },
                    {
                        "code": {
                            "coding": [
                                {
                                    "code": "48006-1",
                                    "display": "Amino acid change type",
                                    "system": "http://loinc.org"
                                }
                            ]
                        },
                        "valueCodeableConcept": {
                            "coding": [
                                {
                                    "code": "LA6698-0",
                                    "display": "Missense",
                                    "system": "http://loinc.org"
                                }
                            ]
                        }
                    },
                    {
                        "code": {
                            "coding": [
                                {
                                    "code": "81290-9",
                                    "display": "Genomic DNA change (gHGVS)",
                                    "system": "http://loinc.org"
                                }
                            ]
                        },
                        "valueCodeableConcept": {
                            "coding": [
                                {
                                    "code": "NC_000017.10",
                                    "display": "NC_000017.10",
                                    "system": "http://www.ncbi.nlm.nih.gov/refseq"
                                }
                            ]
                        }
                    },
                    {
                        "code": {
                            "coding": [
                                {
                                    "code": "69547-8",
                                    "display": "Genomic ref allele",
                                    "system": "http://loinc.org"
                                }
                            ]
                        },
                        "valueString": "G"
                    },
                    {
                        "code": {
                            "coding": [
                                {
                                    "code": "81254-5",
                                    "display": "Genomic allele location",
                                    "system": "http://loinc.org"
                                }
                            ]
                        },
                        "valueRange": {
                            "high": {
                                "system": "http://unitsofmeasure.org",
                                "value": 44248783
                            },
                            "low": {
                                "system": "http://unitsofmeasure.org",
                                "value": 44248783
                            }
                        }
                    },
                    {
                        "code": {
                            "coding": [
                                {
                                    "code": "69551-0",
                                    "display": "Genomic alt allele",
                                    "system": "http://loinc.org"
                                }
                            ]
                        },
                        "valueString": "T"
                    },
                    {
                        "code": {
                            "coding": [
                                {
                                    "code": "81255-2",
                                    "display": "dbSNP ID",
                                    "system": "http://loinc.org"
                                }
                            ]
                        },
                        "valueCodeableConcept": {
                            "coding": [
                                {
                                    "code": "rs142096969",
                                    "display": "rs142096969",
                                    "system": "http://www.ncbi.nlm.nih.gov/projects/SNP"
                                }
                            ]
                        }
                    },
                    {
                        "code": {
                            "coding": [
                                {
                                    "code": "48001-2",
                                    "display": "Cytogenetic (chromosome) location",
                                    "system": "http://loinc.org"
                                }
                            ]
                        },
                        "valueCodeableConcept": {
                            "coding": [
                                {
                                    "code": "17q21.31",
                                    "display": "17q21.31",
                                    "system": "Chrom-Loc"
                                }
                            ]
                        }
                    },
                    {
                        "code": {
                            "coding": [
                                {
                                    "code": "48002-0",
                                    "display": "Genomic source class",
                                    "system": "http://loinc.org"
                                }
                            ]
                        },
                        "valueCodeableConcept": {
                            "coding": [
                                {
                                    "code": "LA6683-2",
                                    "display": "Germline",
                                    "system": "http://loinc.org"
                                }
                            ]
                        }
                    },
                    {
                        "code": {
                            "coding": [
                                {
                                    "code": "53037-8",
                                    "display": "Genetic variation clinical significance",
                                    "system": "http://loinc.org"
                                }
                            ]
                        },
                        "valueCodeableConcept": {
                            "coding": [
                                {
                                    "code": "LA6674-1",
                                    "display": "Likely Benign",
                                    "system": "http://loinc.org"
                                }
                            ]
                        }
                    },
                    {
                        "code": {
                            "coding": [
                                {
                                    "code": "69548-6",
                                    "display": "Genomic variant assessment",
                                    "system": "http://loinc.org"
                                }
                            ]
                        },
                        "valueCodeableConcept": {
                            "coding": [
                                {
                                    "code": "LA9633-4",
                                    "display": "Present",
                                    "system": "http://loinc.org"
                                }
                            ]
                        }
                    },
                    {
                        "code": {
                            "coding": [
                                {
                                    "code": "53034-5",
                                    "display": "Allelic state",
                                    "system": "http://loinc.org"
                                }
                            ]
                        },
                        "valueCodeableConcept": {
                            "coding": [
                                {
                                    "code": "LA6706-1",
                                    "display": "Heterozygous",
                                    "system": "http://loinc.org"
                                }
                            ]
                        }
                    }
                ],
                "effectiveDateTime": "2016-08-09T16:50:00+00:00",
                "identifier": [
                    {
                        "assigner": {
                            "identifier": {
                                "system": "https://fhir.nhs.uk/Id/ods-organization-code",
                                "value": "699X0"
                            }
                        },
                        "system": "https://fhir.nwgenomics.nhs.uk/iGene/ReportIdentifier",
                        "type": {
                            "coding": [
                                {
                                    "code": "FILL",
                                    "system": "http://terminology.hl7.org/CodeSystem/v2-0203"
                                }
                            ]
                        },
                        "value": "Gen825750-LRI4"
                    }
                ],
                "meta": {
                    "profile": [
                        "https://fhir.nwgenomics.nhs.uk/StructureDefinition/Variant"
                    ]
                },
                "method": {
                    "coding": [
                        {
                            "code": "LA26400-4",
                            "display": "SNP array",
                            "system": "http://loinc.org"
                        }
                    ]
                },
                "performer": [
                    {
                        "identifier": {
                            "system": "https://fhir.nhs.uk/Id/ods-organization-code",
                            "value": "699X0"
                        },
                        "type": "Organization"
                    }
                ],
                "status": "final",
                "subject": {
                    "identifier": {
                        "system": "https://fhir.nhs.uk/Id/nhs-number",
                        "type": {
                            "coding": [
                                {
                                    "code": "NH",
                                    "system": "http://terminology.hl7.org/CodeSystem/v2-0203"
                                }
                            ]
                        },
                        "value": "9737383346"
                    },
                    "reference": "urn:uuid:cc2616f3-0310-4e86-8801-720383e15210"
                },
                "valueCodeableConcept": {
                    "coding": [
                        {
                            "code": "24565",
                            "display": "KANSL1",
                            "system": "http://www.genenames.org"
                        }
                    ]
                }
            }
        },
        {
            "fullUrl": "urn:uuid:4910bd5e-8f10-45c6-898e-7a1dfcf1d95b",
            "resource": {
                "resourceType": "Observation",
                "category": [
                    {
                        "coding": [
                            {
                                "code": "laboratory",
                                "system": "http://terminology.hl7.org/CodeSystem/observation-category"
                            }
                        ]
                    },
                    {
                        "coding": [
                            {
                                "code": "GE",
                                "system": "http://terminology.hl7.org/CodeSystem/v2-0074"
                            }
                        ]
                    },
                    {
                        "coding": [
                            {
                                "code": "LA26801-3",
                                "display": "Simple Variant",
                                "system": "http://loinc.org"
                            }
                        ]
                    }
                ],
                "code": {
                    "coding": [
                        {
                            "code": "69548-6",
                            "display": "Genetic variant assessment",
                            "system": "http://loinc.org"
                        }
                    ]
                },
                "component": [
                    {
                        "code": {
                            "coding": [
                                {
                                    "code": "81252-9",
                                    "display": "Discrete genetic variant",
                                    "system": "http://loinc.org"
                                }
                            ]
                        },
                        "valueCodeableConcept": {
                            "coding": [
                                {
                                    "code": "159792",
                                    "display": "NM_007254.3(PNKP):c.188C>T(p.Ala63Val)",
                                    "system": "http://www.ncbi.nlm.nih.gov/clinvar"
                                }
                            ]
                        }
                    },
                    {
                        "code": {
                            "coding": [
                                {
                                    "code": "48018-6",
                                    "display": "Gene studied",
                                    "system": "http://loinc.org"
                                }
                            ]
                        },
                        "valueCodeableConcept": {
                            "coding": [
                                {
                                    "code": "9154",
                                    "display": "PNKP",
                                    "system": "http://www.genenames.org"
                                }
                            ]
                        }
                    },
                    {
                        "code": {
                            "coding": [
                                {
                                    "code": "51958-7",
                                    "display": "Transcript RefSeq ID",
                                    "system": "http://loinc.org"
                                }
                            ]
                        },
                        "valueCodeableConcept": {
                            "coding": [
                                {
                                    "code": "NM_007254.3",
                                    "display": "NM_007254.3",
                                    "system": "http://www.ncbi.nlm.nih.gov/refseq"
                                }
                            ]
                        }
                    },
                    {
                        "code": {
                            "coding": [
                                {
                                    "code": "41103-3",
                                    "display": "Transcript DNA Change (cHGVS)",
                                    "system": "http://loinc.org"
                                }
                            ]
                        },
                        "valueCodeableConcept": {
                            "coding": [
                                {
                                    "code": "c.188C>T",
                                    "display": "c.188C>T",
                                    "system": "http://varnomen.hgvs.org"
                                }
                            ]
                        }
                    },
                    {
                        "code": {
                            "coding": [
                                {
                                    "code": "48005-3",
                                    "display": "Amino acid change p.HGVS",
                                    "system": "http://loinc.org"
                                }
                            ]
                        },
                        "valueCodeableConcept": {
                            "coding": [
                                {
                                    "code": "p.Ala63Val",
                                    "display": "p.Ala63Val",
                                    "system": "http://varnomen.hgvs.org"
                                }
                            ]
                        }
                    },
                    {
                        "code": {
                            "coding": [
                                {
                                    "code": "48019-4",
                                    "display": "DNA change type",
                                    "system": "http://loinc.org"
                                }
                            ]
                        },
                        "valueCodeableConcept": {
                            "coding": [
                                {
                                    "code": "LA6690-7",
                                    "display": "Substitution",
                                    "system": "http://loinc.org"
                                }
                            ]
                        }
                    },
                    {
                        "code": {
                            "coding": [
                                {
                                    "code": "48006-1",
                                    "display": "Amino acid change type",
                                    "system": "http://loinc.org"
                                }
                            ]
                        },
                        "valueCodeableConcept": {
                            "coding": [
                                {
                                    "code": "LA6698-0",
                                    "display": "Missense",
                                    "system": "http://loinc.org"
                                }
                            ]
                        }
                    },
                    {
                        "code": {
                            "coding": [
                                {
                                    "code": "81290-9",
                                    "display": "Genomic DNA change (gHGVS)",
                                    "system": "http://loinc.org"
                                }
                            ]
                        },
                        "valueCodeableConcept": {
                            "coding": [
                                {
                                    "code": "NC_000019.9",
                                    "display": "NC_000019.9",
                                    "system": "http://www.ncbi.nlm.nih.gov/refseq"
                                }
                            ]
                        }
                    },
                    {
                        "code": {
                            "coding": [
                                {
                                    "code": "69547-8",
                                    "display": "Genomic ref allele",
                                    "system": "http://loinc.org"
                                }
                            ]
                        },
                        "valueString": "G"
                    },
                    {
                        "code": {
                            "coding": [
                                {
                                    "code": "81254-5",
                                    "display": "Genomic allele location",
                                    "system": "http://loinc.org"
                                }
                            ]
                        },
                        "valueRange": {
                            "high": {
                                "system": "http://unitsofmeasure.org",
                                "value": 50369666
                            },
                            "low": {
                                "system": "http://unitsofmeasure.org",
                                "value": 50369666
                            }
                        }
                    },
                    {
                        "code": {
                            "coding": [
                                {
                                    "code": "69551-0",
                                    "display": "Genomic alt allele",
                                    "system": "http://loinc.org"
                                }
                            ]
                        },
                        "valueString": "A"
                    },
                    {
                        "code": {
                            "coding": [
                                {
                                    "code": "81255-2",
                                    "display": "dbSNP ID",
                                    "system": "http://loinc.org"
                                }
                            ]
                        },
                        "valueCodeableConcept": {
                            "coding": [
                                {
                                    "code": "rs3739173",
                                    "display": "rs3739173",
                                    "system": "http://www.ncbi.nlm.nih.gov/projects/SNP"
                                }
                            ]
                        }
                    },
                    {
                        "code": {
                            "coding": [
                                {
                                    "code": "48001-2",
                                    "display": "Cytogenetic (chromosome) location",
                                    "system": "http://loinc.org"
                                }
                            ]
                        },
                        "valueCodeableConcept": {
                            "coding": [
                                {
                                    "code": "19q13.33",
                                    "display": "19q13.33",
                                    "system": "Chrom-Loc"
                                }
                            ]
                        }
                    },
                    {
                        "code": {
                            "coding": [
                                {
                                    "code": "48002-0",
                                    "display": "Genomic source class",
                                    "system": "http://loinc.org"
                                }
                            ]
                        },
                        "valueCodeableConcept": {
                            "coding": [
                                {
                                    "code": "LA6683-2",
                                    "display": "Germline",
                                    "system": "http://loinc.org"
                                }
                            ]
                        }
                    },
                    {
                        "code": {
                            "coding": [
                                {
                                    "code": "53037-8",
                                    "display": "Genetic variation clinical significance",
                                    "system": "http://loinc.org"
                                }
                            ]
                        },
                        "valueCodeableConcept": {
                            "coding": [
                                {
                                    "code": "LA6671-7",
                                    "display": "Uncertain Significance",
                                    "system": "http://loinc.org"
                                }
                            ]
                        }
                    },
                    {
                        "code": {
                            "coding": [
                                {
                                    "code": "69548-6",
                                    "display": "Genomic variant assessment",
                                    "system": "http://loinc.org"
                                }
                            ]
                        },
                        "valueCodeableConcept": {
                            "coding": [
                                {
                                    "code": "LA9633-4",
                                    "display": "Present",
                                    "system": "http://loinc.org"
                                }
                            ]
                        }
                    },
                    {
                        "code": {
                            "coding": [
                                {
                                    "code": "53034-5",
                                    "display": "Allelic state",
                                    "system": "http://loinc.org"
                                }
                            ]
                        },
                        "valueCodeableConcept": {
                            "coding": [
                                {
                                    "code": "LA6706-1",
                                    "display": "Heterozygous",
                                    "system": "http://loinc.org"
                                }
                            ]
                        }
                    }
                ],
                "effectiveDateTime": "2016-08-09T16:50:00+00:00",
                "identifier": [
                    {
                        "assigner": {
                            "identifier": {
                                "system": "https://fhir.nhs.uk/Id/ods-organization-code",
                                "value": "699X0"
                            }
                        },
                        "system": "https://fhir.nwgenomics.nhs.uk/iGene/ReportIdentifier",
                        "type": {
                            "coding": [
                                {
                                    "code": "FILL",
                                    "system": "http://terminology.hl7.org/CodeSystem/v2-0203"
                                }
                            ]
                        },
                        "value": "Gen825750-LRI4"
                    }
                ],
                "meta": {
                    "profile": [
                        "https://fhir.nwgenomics.nhs.uk/StructureDefinition/Variant"
                    ]
                },
                "method": {
                    "coding": [
                        {
                            "code": "LA26400-4",
                            "display": "SNP array",
                            "system": "http://loinc.org"
                        }
                    ]
                },
                "performer": [
                    {
                        "identifier": {
                            "system": "https://fhir.nhs.uk/Id/ods-organization-code",
                            "value": "699X0"
                        },
                        "type": "Organization"
                    }
                ],
                "status": "final",
                "subject": {
                    "identifier": {
                        "system": "https://fhir.nhs.uk/Id/nhs-number",
                        "type": {
                            "coding": [
                                {
                                    "code": "NH",
                                    "system": "http://terminology.hl7.org/CodeSystem/v2-0203"
                                }
                            ]
                        },
                        "value": "9737383346"
                    },
                    "reference": "urn:uuid:cc2616f3-0310-4e86-8801-720383e15210"
                },
                "valueCodeableConcept": {
                    "coding": [
                        {
                            "code": "9154",
                            "display": "PNKP",
                            "system": "http://www.genenames.org"
                        }
                    ]
                }
            }
        },
        {
            "fullUrl": "urn:uuid:26530311-de76-4d1e-8278-6c4fd140fb73",
            "resource": {
                "resourceType": "Observation",
                "category": [
                    {
                        "coding": [
                            {
                                "code": "laboratory",
                                "system": "http://terminology.hl7.org/CodeSystem/observation-category"
                            }
                        ]
                    },
                    {
                        "coding": [
                            {
                                "code": "GE",
                                "system": "http://terminology.hl7.org/CodeSystem/v2-0074"
                            }
                        ]
                    }
                ],
                "code": {
                    "coding": [
                        {
                            "code": "412731001",
                            "display": "Genetic finding detected",
                            "system": "http://snomed.info/sct"
                        },
                        {
                            "code": "diagnostic-implication",
                            "system": "http://hl7.org/fhir/uv/genomics-reporting/CodeSystem/tbd-codes-cs"
                        },
                        {
                            "code": "C3150667",
                            "display": "Early infantile epileptic encephalopathy 10",
                            "system": "MedGen-Dis"
                        }
                    ]
                },
                "component": [
                    {
                        "code": {
                            "coding": [
                                {
                                    "code": "81259-4",
                                    "display": "Probable associated phenotype",
                                    "system": "http://loinc.org"
                                }
                            ]
                        },
                        "valueCodeableConcept": {
                            "coding": [
                                {
                                    "code": "C3150667",
                                    "display": "Early infantile epileptic encephalopathy 10",
                                    "system": "MedGen-Dis"
                                }
                            ]
                        }
                    }
                ],
                "derivedFrom": [
                    {
                        "reference": "urn:uuid:4910bd5e-8f10-45c6-898e-7a1dfcf1d95b",
                        "type": "Observation"
                    }
                ],
                "effectiveDateTime": "2016-08-09T16:50:00+00:00",
                "identifier": [
                    {
                        "assigner": {
                            "identifier": {
                                "system": "https://fhir.nhs.uk/Id/ods-organization-code",
                                "value": "699X0"
                            }
                        },
                        "system": "https://fhir.nwgenomics.nhs.uk/iGene/ReportIdentifier",
                        "type": {
                            "coding": [
                                {
                                    "code": "FILL",
                                    "system": "http://terminology.hl7.org/CodeSystem/v2-0203"
                                }
                            ]
                        },
                        "value": "Gen825750-LRI4"
                    }
                ],
                "meta": {
                    "profile": [
                        "https://fhir.nwgenomics.nhs.uk/StructureDefinition/DiagnosticImplication"
                    ]
                },
                "performer": [
                    {
                        "identifier": {
                            "system": "https://fhir.nhs.uk/Id/ods-organization-code",
                            "value": "699X0"
                        },
                        "type": "Organization"
                    }
                ],
                "status": "final",
                "subject": {
                    "identifier": {
                        "system": "https://fhir.nhs.uk/Id/nhs-number",
                        "type": {
                            "coding": [
                                {
                                    "code": "NH",
                                    "system": "http://terminology.hl7.org/CodeSystem/v2-0203"
                                }
                            ]
                        },
                        "value": "9737383346"
                    },
                    "reference": "urn:uuid:cc2616f3-0310-4e86-8801-720383e15210"
                }
            }
        },
        {
            "fullUrl": "urn:uuid:0b67da25-25dc-445c-aca8-fac4e1de0dd6",
            "resource": {
                "resourceType": "ServiceRequest",
                "authoredOn": "2016-08-03",
                "category": [
                    {
                        "coding": [
                            {
                                "code": "116148004",
                                "system": "http://snomed.info/sct"
                            }
                        ]
                    }
                ],
                "code": {
                    "coding": [
                        {
                            "code": "R59.3",
                            "display": "Epilepsy - early onset or syndromic (402)",
                            "system": "https://fhir.nhs.uk/CodeSystem/England-GenomicTestDirectory"
                        }
                    ]
                },
                "identifier": [
                    {
                        "assigner": {
                            "identifier": {
                                "system": "https://fhir.nhs.uk/Id/ods-organization-code",
                                "value": "RBS"
                            }
                        },
                        "type": {
                            "coding": [
                                {
                                    "code": "PLAC",
                                    "system": "http://terminology.hl7.org/CodeSystem/v2-0203"
                                }
                            ]
                        },
                        "value": "LRI-5280001671"
                    }
                ],
                "intent": "order",
                "reasonCode": [
                    {
                        "coding": [
                            {
                                "code": "C0268126",
                                "display": "Adenylosuccinate lyase deficiency",
                                "system": "MedGen-Dis"
                            }
                        ]
                    },
                    {
                        "coding": [
                            {
                                "code": "C0162635",
                                "display": "Angelman syndrome",
                                "system": "MedGen-Dis"
                            }
                        ]
                    },
                    {
                        "coding": [
                            {
                                "code": "C2748910",
                                "display": "Atypical Rett syndrome",
                                "system": "MedGen-Dis"
                            }
                        ]
                    }
                ],
                "requester": {
                    "identifier": {
                        "system": "https://fhir.nhs.uk/Id/ods-organization-code",
                        "value": "RBS"
                    },
                    "type": "Organization"
                },
                "status": "active",
                "subject": {
                    "identifier": {
                        "system": "https://fhir.nhs.uk/Id/nhs-number",
                        "type": {
                            "coding": [
                                {
                                    "code": "NH",
                                    "system": "http://terminology.hl7.org/CodeSystem/v2-0203"
                                }
                            ]
                        },
                        "value": "9737383346"
                    },
                    "reference": "urn:uuid:cc2616f3-0310-4e86-8801-720383e15210"
                }
            }
        },
        {
            "fullUrl": "urn:uuid:27878aff-b773-4f56-97d9-83a7c98af40a",
            "resource": {
                "resourceType": "DiagnosticReport",
                "basedOn": [
                    {
                        "identifier": {
                            "assigner": {
                                "identifier": {
                                    "system": "https://fhir.nhs.uk/Id/ods-organization-code",
                                    "value": "RBS"
                                }
                            },
                            "type": {
                                "coding": [
                                    {
                                        "code": "PLAC",
                                        "system": "http://terminology.hl7.org/CodeSystem/v2-0203"
                                    }
                                ]
                            },
                            "value": "LRI-5280001671"
                        },
                        "reference": "urn:uuid:0b67da25-25dc-445c-aca8-fac4e1de0dd6",
                        "type": "ServiceRequest"
                    }
                ],
                "category": [
                    {
                        "coding": [
                            {
                                "code": "GE",
                                "system": "http://terminology.hl7.org/CodeSystem/v2-0074"
                            }
                        ]
                    }
                ],
                "code": {
                    "coding": [
                        {
                            "code": "R59.3",
                            "display": "Epilepsy - early onset or syndromic (402)",
                            "system": "https://fhir.nhs.uk/CodeSystem/England-GenomicTestDirectory"
                        }
                    ]
                },
                "effectiveDateTime": "2016-08-09T16:50:00+00:00",
                "identifier": [
                    {
                        "assigner": {
                            "identifier": {
                                "system": "https://fhir.nhs.uk/Id/ods-organization-code",
                                "value": "699X0"
                            }
                        },
                        "system": "https://fhir.nwgenomics.nhs.uk/iGene/ReportIdentifier",
                        "type": {
                            "coding": [
                                {
                                    "code": "FILL",
                                    "system": "http://terminology.hl7.org/CodeSystem/v2-0203"
                                }
                            ]
                        },
                        "value": "Gen825750-LRI4"
                    }
                ],
                "performer": [
                    {
                        "display": "NHS North West Genomics",
                        "identifier": {
                            "system": "https://fhir.nhs.uk/Id/ods-organization-code",
                            "value": "699X0"
                        },
                        "type": "Organization"
                    }
                ],
                "presentedForm": [
                    {
                        "contentType": "application/pdf",
                        "url": "urn:uuid:5b27e162-fb1a-4dd1-bcef-6948b7933bd0"
                    }
                ],
                "result": [
                    {
                        "display": "Reason for study",
                        "reference": "urn:uuid:a2dd2776-350c-4815-9293-e364513d071a",
                        "type": "Observation"
                    },
                    {
                        "display": "Genetic disease(s) assessed",
                        "reference": "urn:uuid:cdf36c49-61b6-469f-8250-72fe805c5f3f",
                        "type": "Observation"
                    },
                    {
                        "display": "Genetic disease(s) assessed",
                        "reference": "urn:uuid:e5f2703c-ffdc-4726-ac20-dc11909b1624",
                        "type": "Observation"
                    },
                    {
                        "display": "Genetic disease(s) assessed",
                        "reference": "urn:uuid:1cab0e28-b928-42e9-96d6-915c5b15e7da",
                        "type": "Observation"
                    },
                    {
                        "display": "Gene studied",
                        "reference": "urn:uuid:d1a3bcf4-49b3-403e-bab2-ffa3099c1ed4",
                        "type": "Observation"
                    },
                    {
                        "display": "Gene studied",
                        "reference": "urn:uuid:0a889c1a-6356-4522-b0ec-93de924af64a",
                        "type": "Observation"
                    },
                    {
                        "display": "Gene studied",
                        "reference": "urn:uuid:faacd688-e52c-4366-9704-1d2acf291531",
                        "type": "Observation"
                    },
                    {
                        "display": "Gene studied",
                        "reference": "urn:uuid:9399cdeb-dee4-4150-a94f-926f4ad90b4d",
                        "type": "Observation"
                    },
                    {
                        "display": "Gene studied",
                        "reference": "urn:uuid:7dbc3b4b-2dc5-4373-b0b8-7db37733b487",
                        "type": "Observation"
                    },
                    {
                        "display": "Discrete variation analysis overall interpretation",
                        "reference": "urn:uuid:d73149c5-415f-4b82-90b0-d1b3311a0390",
                        "type": "Observation"
                    },
                    {
                        "display": "Deletion-duplication overall interpretation",
                        "reference": "urn:uuid:aa38e568-0334-4296-be51-aac374a0dae0",
                        "type": "Observation"
                    },
                    {
                        "display": "Description of ranges of DNA sequences examined",
                        "reference": "urn:uuid:b27f6dd5-3c73-440e-9172-6df7dff9b201",
                        "type": "Observation"
                    },
                    {
                        "display": "Human reference sequence assembly",
                        "reference": "urn:uuid:99451e65-8874-4dd3-918e-8c29bbd98df7",
                        "type": "Observation"
                    },
                    {
                        "display": "dbSNP version",
                        "reference": "urn:uuid:c038beb1-2c1c-4b01-85a7-9cd5e8e64858",
                        "type": "Observation"
                    },
                    {
                        "display": "Genetic variant assessment",
                        "reference": "urn:uuid:c4369e99-ed9d-4969-981a-4e36bea86fbd",
                        "type": "Observation"
                    },
                    {
                        "display": "Genetic finding detected",
                        "reference": "urn:uuid:929825c7-ab95-45c0-9861-113159aa5416",
                        "type": "Observation"
                    },
                    {
                        "display": "Genetic variant assessment",
                        "reference": "urn:uuid:acb8e98f-9ce0-4da3-b5c2-9a7901498167",
                        "type": "Observation"
                    },
                    {
                        "display": "Genetic finding detected",
                        "reference": "urn:uuid:ab9f56f4-903b-4268-a086-c58c08e026f3",
                        "type": "Observation"
                    },
                    {
                        "display": "Genetic variant assessment",
                        "reference": "urn:uuid:3f4e9e22-2dab-4dc8-94a2-4b1077d68302",
                        "type": "Observation"
                    },
                    {
                        "display": "Genetic variant assessment",
                        "reference": "urn:uuid:4910bd5e-8f10-45c6-898e-7a1dfcf1d95b",
                        "type": "Observation"
                    },
                    {
                        "display": "Genetic finding detected",
                        "reference": "urn:uuid:26530311-de76-4d1e-8278-6c4fd140fb73",
                        "type": "Observation"
                    }
                ],
                "status": "unknown",
                "subject": {
                    "identifier": {
                        "system": "https://fhir.nhs.uk/Id/nhs-number",
                        "type": {
                            "coding": [
                                {
                                    "code": "NH",
                                    "system": "http://terminology.hl7.org/CodeSystem/v2-0203"
                                }
                            ]
                        },
                        "value": "9737383346"
                    },
                    "reference": "urn:uuid:cc2616f3-0310-4e86-8801-720383e15210"
                }
            }
        }
    ],
    "identifier": {
        "value": "ORIE-251014-9"
    },
    "timestamp": "2025-10-14T15:59:42+00:00",
    "type": "message"
}