{
    "resourceType": "Bundle",
    "entry": [
        {
            "fullUrl": "urn:uuid:e68545b2-8f83-44d9-9c64-92fee528f3de",
            "resource": {
                "resourceType": "MessageHeader",
                "destination": [
                    {
                        "endpoint": "https//fhir.mft.nhs.uk/Endpoint/EPIC",
                        "receiver": {
                            "identifier": {
                                "system": "https://fhir.nhs.uk/Id/ods-organization-code",
                                "value": "699X0"
                            }
                        }
                    }
                ],
                "eventCoding": {
                    "code": "T02",
                    "system": "http://terminology.hl7.org/CodeSystem/v2-0003"
                },
                "focus": [
                    {
                        "reference": "urn:uuid:abcf766c-e9e4-4801-af44-9120b67df945"
                    }
                ],
                "sender": {
                    "identifier": {
                        "system": "https://fhir.nhs.uk/Id/ods-organization-code",
                        "value": "699X0"
                    }
                },
                "source": {
                    "endpoint": "https://fhir.nwgenomics.nhs.uk/Endpoint/IGENE",
                    "software": "NW GLH"
                }
            }
        },
        {
            "fullUrl": "urn:uuid:0b04bbf5-f900-4fc5-aa30-87e961abee50",
            "resource": {
                "resourceType": "Patient",
                "address": [
                    {
                        "postalCode": "CW12 1BN"
                    }
                ],
                "birthDate": "1982--0-2-",
                "gender": "female",
                "identifier": [
                    {
                        "system": "https://fhir.nhs.uk/Id/nhs-number",
                        "type": {
                            "coding": [
                                {
                                    "code": "NH",
                                    "system": "http://terminology.hl7.org/CodeSystem/v2-0203"
                                }
                            ]
                        },
                        "value": "9737383281"
                    },
                    {
                        "assigner": {
                            "identifier": {
                                "system": "https://fhir.nhs.uk/Id/ods-organization-code",
                                "value": "R0A"
                            }
                        },
                        "system": "urn:oid:1.2.840.114350.1.13.611.3.7.5.737384.14",
                        "type": {
                            "coding": [
                                {
                                    "code": "MR",
                                    "system": "http://terminology.hl7.org/CodeSystem/v2-0203"
                                }
                            ]
                        },
                        "value": "ABC14567"
                    }
                ],
                "name": [
                    {
                        "family": "CONGLETON",
                        "given": [
                            "Margaery"
                        ]
                    }
                ]
            }
        },
        {
            "fullUrl": "urn:uuid:7300df92-7c36-4aa9-8486-438f16006c60",
            "resource": {
                "resourceType": "Observation",
                "code": {
                    "coding": [
                        {
                            "code": "53577-3",
                            "display": "Reason for study",
                            "system": "http://loinc.org"
                        }
                    ]
                },
                "identifier": [
                    {
                        "assigner": {
                            "identifier": {
                                "system": "https://fhir.nhs.uk/Id/ods-organization-code",
                                "value": "699X0"
                            }
                        },
                        "system": "https://fhir.nwgenomics.nhs.uk/iGene/ReportIdentifier",
                        "type": {
                            "coding": [
                                {
                                    "code": "FILL",
                                    "system": "http://terminology.hl7.org/CodeSystem/v2-0203"
                                }
                            ]
                        },
                        "value": "Gen825750"
                    }
                ],
                "performer": [
                    {
                        "identifier": {
                            "system": "https://fhir.nhs.uk/Id/ods-organization-code",
                            "value": "699X0"
                        },
                        "type": "Organization"
                    }
                ],
                "status": "final",
                "subject": {
                    "identifier": {
                        "system": "https://fhir.nhs.uk/Id/nhs-number",
                        "type": {
                            "coding": [
                                {
                                    "code": "NH",
                                    "system": "http://terminology.hl7.org/CodeSystem/v2-0203"
                                }
                            ]
                        },
                        "value": "9737383281"
                    },
                    "reference": "urn:uuid:0b04bbf5-f900-4fc5-aa30-87e961abee50"
                },
                "valueString": "Patient may be carrier for classic galactosemia."
            }
        },
        {
            "fullUrl": "urn:uuid:c5df5813-f30d-40fa-bb66-98cc85459806",
            "resource": {
                "resourceType": "Observation",
                "code": {
                    "coding": [
                        {
                            "code": "51967-8",
                            "display": "Genetic disease(s) assessed",
                            "system": "http://loinc.org"
                        }
                    ]
                },
                "identifier": [
                    {
                        "assigner": {
                            "identifier": {
                                "system": "https://fhir.nhs.uk/Id/ods-organization-code",
                                "value": "699X0"
                            }
                        },
                        "system": "https://fhir.nwgenomics.nhs.uk/iGene/ReportIdentifier",
                        "type": {
                            "coding": [
                                {
                                    "code": "FILL",
                                    "system": "http://terminology.hl7.org/CodeSystem/v2-0203"
                                }
                            ]
                        },
                        "value": "Gen825750"
                    }
                ],
                "performer": [
                    {
                        "identifier": {
                            "system": "https://fhir.nhs.uk/Id/ods-organization-code",
                            "value": "699X0"
                        },
                        "type": "Organization"
                    }
                ],
                "status": "final",
                "subject": {
                    "identifier": {
                        "system": "https://fhir.nhs.uk/Id/nhs-number",
                        "type": {
                            "coding": [
                                {
                                    "code": "NH",
                                    "system": "http://terminology.hl7.org/CodeSystem/v2-0203"
                                }
                            ]
                        },
                        "value": "9737383281"
                    },
                    "reference": "urn:uuid:0b04bbf5-f900-4fc5-aa30-87e961abee50"
                },
                "valueCodeableConcept": {
                    "coding": [
                        {
                            "code": "C0016952",
                            "display": "Galactosemia",
                            "system": "MedGen-Dis"
                        }
                    ]
                }
            }
        },
        {
            "fullUrl": "urn:uuid:2443dc51-aa6c-4df6-8489-814117530693",
            "resource": {
                "resourceType": "Observation",
                "code": {
                    "coding": [
                        {
                            "code": "51958-7",
                            "display": "Transcript reference sequence [Identifier]",
                            "system": "http://loinc.org"
                        }
                    ]
                },
                "identifier": [
                    {
                        "assigner": {
                            "identifier": {
                                "system": "https://fhir.nhs.uk/Id/ods-organization-code",
                                "value": "699X0"
                            }
                        },
                        "system": "https://fhir.nwgenomics.nhs.uk/iGene/ReportIdentifier",
                        "type": {
                            "coding": [
                                {
                                    "code": "FILL",
                                    "system": "http://terminology.hl7.org/CodeSystem/v2-0203"
                                }
                            ]
                        },
                        "value": "Gen825750"
                    }
                ],
                "performer": [
                    {
                        "identifier": {
                            "system": "https://fhir.nhs.uk/Id/ods-organization-code",
                            "value": "699X0"
                        },
                        "type": "Organization"
                    }
                ],
                "status": "final",
                "subject": {
                    "identifier": {
                        "system": "https://fhir.nhs.uk/Id/nhs-number",
                        "type": {
                            "coding": [
                                {
                                    "code": "NH",
                                    "system": "http://terminology.hl7.org/CodeSystem/v2-0203"
                                }
                            ]
                        },
                        "value": "9737383281"
                    },
                    "reference": "urn:uuid:0b04bbf5-f900-4fc5-aa30-87e961abee50"
                },
                "valueCodeableConcept": {
                    "coding": [
                        {
                            "code": "NM_000249",
                            "display": "NM_000249",
                            "system": "http://www.ncbi.nlm.nih.gov/refseq"
                        }
                    ]
                }
            }
        },
        {
            "fullUrl": "urn:uuid:2cd21b7f-c78a-46b8-97ab-de429a3cb0f6",
            "resource": {
                "resourceType": "Observation",
                "code": {
                    "coding": [
                        {
                            "code": "48018-6",
                            "display": "Gene studied [ID]",
                            "system": "http://loinc.org"
                        }
                    ]
                },
                "identifier": [
                    {
                        "assigner": {
                            "identifier": {
                                "system": "https://fhir.nhs.uk/Id/ods-organization-code",
                                "value": "699X0"
                            }
                        },
                        "system": "https://fhir.nwgenomics.nhs.uk/iGene/ReportIdentifier",
                        "type": {
                            "coding": [
                                {
                                    "code": "FILL",
                                    "system": "http://terminology.hl7.org/CodeSystem/v2-0203"
                                }
                            ]
                        },
                        "value": "Gen825750"
                    }
                ],
                "performer": [
                    {
                        "identifier": {
                            "system": "https://fhir.nhs.uk/Id/ods-organization-code",
                            "value": "699X0"
                        },
                        "type": "Organization"
                    }
                ],
                "status": "final",
                "subject": {
                    "identifier": {
                        "system": "https://fhir.nhs.uk/Id/nhs-number",
                        "type": {
                            "coding": [
                                {
                                    "code": "NH",
                                    "system": "http://terminology.hl7.org/CodeSystem/v2-0203"
                                }
                            ]
                        },
                        "value": "9737383281"
                    },
                    "reference": "urn:uuid:0b04bbf5-f900-4fc5-aa30-87e961abee50"
                },
                "valueCodeableConcept": {
                    "coding": [
                        {
                            "code": "4135",
                            "display": "GALT",
                            "system": "http://www.genenames.org"
                        }
                    ]
                }
            }
        },
        {
            "fullUrl": "urn:uuid:3a8793e7-d0ba-44ca-85ab-d54fd53b4ad2",
            "resource": {
                "resourceType": "Observation",
                "code": {
                    "coding": [
                        {
                            "code": "36908-2",
                            "display": "Gene mutations tested",
                            "system": "http://loinc.org"
                        }
                    ]
                },
                "identifier": [
                    {
                        "assigner": {
                            "identifier": {
                                "system": "https://fhir.nhs.uk/Id/ods-organization-code",
                                "value": "699X0"
                            }
                        },
                        "system": "https://fhir.nwgenomics.nhs.uk/iGene/ReportIdentifier",
                        "type": {
                            "coding": [
                                {
                                    "code": "FILL",
                                    "system": "http://terminology.hl7.org/CodeSystem/v2-0203"
                                }
                            ]
                        },
                        "value": "Gen825750"
                    }
                ],
                "performer": [
                    {
                        "identifier": {
                            "system": "https://fhir.nhs.uk/Id/ods-organization-code",
                            "value": "699X0"
                        },
                        "type": "Organization"
                    }
                ],
                "status": "final",
                "subject": {
                    "identifier": {
                        "system": "https://fhir.nhs.uk/Id/nhs-number",
                        "type": {
                            "coding": [
                                {
                                    "code": "NH",
                                    "system": "http://terminology.hl7.org/CodeSystem/v2-0203"
                                }
                            ]
                        },
                        "value": "9737383281"
                    },
                    "reference": "urn:uuid:0b04bbf5-f900-4fc5-aa30-87e961abee50"
                },
                "valueCodeableConcept": {
                    "coding": [
                        {
                            "code": "-119_-116delGTCA",
                            "display": "-119_-116delGTCA",
                            "system": "http://varnomen.hgvs.org"
                        }
                    ]
                }
            }
        },
        {
            "fullUrl": "urn:uuid:90bb103c-28dd-4ce1-9f19-60bc98a4d1b5",
            "resource": {
                "resourceType": "Observation",
                "code": {
                    "coding": [
                        {
                            "code": "36908-2",
                            "display": "Gene mutations tested",
                            "system": "http://loinc.org"
                        }
                    ]
                },
                "identifier": [
                    {
                        "assigner": {
                            "identifier": {
                                "system": "https://fhir.nhs.uk/Id/ods-organization-code",
                                "value": "699X0"
                            }
                        },
                        "system": "https://fhir.nwgenomics.nhs.uk/iGene/ReportIdentifier",
                        "type": {
                            "coding": [
                                {
                                    "code": "FILL",
                                    "system": "http://terminology.hl7.org/CodeSystem/v2-0203"
                                }
                            ]
                        },
                        "value": "Gen825750"
                    }
                ],
                "performer": [
                    {
                        "identifier": {
                            "system": "https://fhir.nhs.uk/Id/ods-organization-code",
                            "value": "699X0"
                        },
                        "type": "Organization"
                    }
                ],
                "status": "final",
                "subject": {
                    "identifier": {
                        "system": "https://fhir.nhs.uk/Id/nhs-number",
                        "type": {
                            "coding": [
                                {
                                    "code": "NH",
                                    "system": "http://terminology.hl7.org/CodeSystem/v2-0203"
                                }
                            ]
                        },
                        "value": "9737383281"
                    },
                    "reference": "urn:uuid:0b04bbf5-f900-4fc5-aa30-87e961abee50"
                },
                "valueCodeableConcept": {
                    "coding": [
                        {
                            "code": "Asp98Asn",
                            "display": "Asp98Asn",
                            "system": "http://varnomen.hgvs.org"
                        }
                    ]
                }
            }
        },
        {
            "fullUrl": "urn:uuid:ad2af95f-aec2-404c-b8ea-b72940a42fae",
            "resource": {
                "resourceType": "Observation",
                "code": {
                    "coding": [
                        {
                            "code": "36908-2",
                            "display": "Gene mutations tested",
                            "system": "http://loinc.org"
                        }
                    ]
                },
                "identifier": [
                    {
                        "assigner": {
                            "identifier": {
                                "system": "https://fhir.nhs.uk/Id/ods-organization-code",
                                "value": "699X0"
                            }
                        },
                        "system": "https://fhir.nwgenomics.nhs.uk/iGene/ReportIdentifier",
                        "type": {
                            "coding": [
                                {
                                    "code": "FILL",
                                    "system": "http://terminology.hl7.org/CodeSystem/v2-0203"
                                }
                            ]
                        },
                        "value": "Gen825750"
                    }
                ],
                "performer": [
                    {
                        "identifier": {
                            "system": "https://fhir.nhs.uk/Id/ods-organization-code",
                            "value": "699X0"
                        },
                        "type": "Organization"
                    }
                ],
                "status": "final",
                "subject": {
                    "identifier": {
                        "system": "https://fhir.nhs.uk/Id/nhs-number",
                        "type": {
                            "coding": [
                                {
                                    "code": "NH",
                                    "system": "http://terminology.hl7.org/CodeSystem/v2-0203"
                                }
                            ]
                        },
                        "value": "9737383281"
                    },
                    "reference": "urn:uuid:0b04bbf5-f900-4fc5-aa30-87e961abee50"
                },
                "valueCodeableConcept": {
                    "coding": [
                        {
                            "code": "Gln188Arg",
                            "display": "Gln188Arg",
                            "system": "http://varnomen.hgvs.org"
                        }
                    ]
                }
            }
        },
        {
            "fullUrl": "urn:uuid:f092ee89-4bac-457a-87d0-e902f2ef0ff4",
            "resource": {
                "resourceType": "Observation",
                "code": {
                    "coding": [
                        {
                            "code": "51968-6",
                            "display": "Discrete variation analysis overall interpretation",
                            "system": "http://loinc.org"
                        }
                    ]
                },
                "identifier": [
                    {
                        "assigner": {
                            "identifier": {
                                "system": "https://fhir.nhs.uk/Id/ods-organization-code",
                                "value": "699X0"
                            }
                        },
                        "system": "https://fhir.nwgenomics.nhs.uk/iGene/ReportIdentifier",
                        "type": {
                            "coding": [
                                {
                                    "code": "FILL",
                                    "system": "http://terminology.hl7.org/CodeSystem/v2-0203"
                                }
                            ]
                        },
                        "value": "Gen825750"
                    }
                ],
                "performer": [
                    {
                        "identifier": {
                            "system": "https://fhir.nhs.uk/Id/ods-organization-code",
                            "value": "699X0"
                        },
                        "type": "Organization"
                    }
                ],
                "status": "final",
                "subject": {
                    "identifier": {
                        "system": "https://fhir.nhs.uk/Id/nhs-number",
                        "type": {
                            "coding": [
                                {
                                    "code": "NH",
                                    "system": "http://terminology.hl7.org/CodeSystem/v2-0203"
                                }
                            ]
                        },
                        "value": "9737383281"
                    },
                    "reference": "urn:uuid:0b04bbf5-f900-4fc5-aa30-87e961abee50"
                },
                "valueCodeableConcept": {
                    "coding": [
                        {
                            "code": "LA6576-8",
                            "display": "Positive",
                            "system": "http://loinc.org"
                        }
                    ]
                }
            }
        },
        {
            "fullUrl": "urn:uuid:cc5a6fbc-73f3-425d-9ba8-0d8bbceba771",
            "resource": {
                "resourceType": "Binary",
                "contentType": "application/pdf",
                "data": ""
            }
        },
        {
            "fullUrl": "urn:uuid:3df70387-ce29-4c96-bec3-c05d5d0e77fc",
            "resource": {
                "resourceType": "DocumentReference",
                "content": [
                    {
                        "attachment": {
                            "contentType": "application/pdf",
                            "url": "urn:uuid:cc5a6fbc-73f3-425d-9ba8-0d8bbceba771"
                        }
                    }
                ],
                "context": {
                    "period": {
                        "end": "2016-08-09T16:50:00+00:00",
                        "start": "2016-08-09T16:50:00+00:00"
                    },
                    "related": [
                        {
                            "identifier": {
                                "assigner": {
                                    "identifier": {
                                        "system": "https://fhir.nhs.uk/Id/ods-organization-code",
                                        "value": "R0A"
                                    }
                                },
                                "type": {
                                    "coding": [
                                        {
                                            "code": "PLAC",
                                            "system": "http://terminology.hl7.org/CodeSystem/v2-0203"
                                        }
                                    ]
                                },
                                "value": "LRI-1601716017"
                            },
                            "reference": "urn:uuid:ed19696d-1138-4aca-90b7-17fb5a67d00b",
                            "type": "ServiceRequest"
                        },
                        {
                            "identifier": {
                                "assigner": {
                                    "identifier": {
                                        "system": "https://fhir.nhs.uk/Id/ods-organization-code",
                                        "value": "699X0"
                                    }
                                },
                                "system": "https://fhir.nwgenomics.nhs.uk/iGene/ReportIdentifier",
                                "type": {
                                    "coding": [
                                        {
                                            "code": "FILL",
                                            "system": "http://terminology.hl7.org/CodeSystem/v2-0203"
                                        }
                                    ]
                                },
                                "value": "Gen825750"
                            },
                            "reference": "urn:uuid:abcf766c-e9e4-4801-af44-9120b67df945",
                            "type": "DiagnosticReport"
                        }
                    ],
                    "sourcePatientInfo": {
                        "identifier": {
                            "assigner": {
                                "identifier": {
                                    "system": "https://fhir.nhs.uk/Id/ods-organization-code",
                                    "value": "R0A"
                                }
                            },
                            "system": "urn:oid:1.2.840.114350.1.13.611.3.7.5.737384.14",
                            "type": {
                                "coding": [
                                    {
                                        "code": "MR",
                                        "system": "http://terminology.hl7.org/CodeSystem/v2-0203"
                                    }
                                ]
                            },
                            "value": "ABC14567"
                        }
                    }
                },
                "custodian": {
                    "identifier": {
                        "system": "https://fhir.nhs.uk/Id/ods-organization-code",
                        "value": "699X0"
                    },
                    "type": "Organization"
                },
                "date": "2016-08-09T16:50:00+00:00",
                "identifier": [
                    {
                        "assigner": {
                            "identifier": {
                                "system": "https://fhir.nhs.uk/Id/ods-organization-code",
                                "value": "699X0"
                            }
                        },
                        "system": "https://fhir.nwgenomics.nhs.uk/iGene/ReportIdentifier",
                        "type": {
                            "coding": [
                                {
                                    "code": "FILL",
                                    "system": "http://terminology.hl7.org/CodeSystem/v2-0203"
                                }
                            ]
                        },
                        "value": "Gen825750"
                    }
                ],
                "status": "current",
                "subject": {
                    "identifier": {
                        "system": "https://fhir.nhs.uk/Id/nhs-number",
                        "type": {
                            "coding": [
                                {
                                    "code": "NH",
                                    "system": "http://terminology.hl7.org/CodeSystem/v2-0203"
                                }
                            ]
                        },
                        "value": "9737383281"
                    },
                    "reference": "urn:uuid:0b04bbf5-f900-4fc5-aa30-87e961abee50"
                },
                "type": {
                    "coding": [
                        {
                            "code": "1054161000000101",
                            "display": "Genetic report",
                            "system": "http://snomed.info/sct"
                        }
                    ]
                }
            }
        },
        {
            "fullUrl": "urn:uuid:66ee3909-e238-473c-a4bc-1063b4323790",
            "resource": {
                "resourceType": "Observation",
                "code": {
                    "coding": [
                        {
                            "code": "62374-4",
                            "display": "Human reference sequence assembly",
                            "system": "http://loinc.org"
                        }
                    ]
                },
                "identifier": [
                    {
                        "assigner": {
                            "identifier": {
                                "system": "https://fhir.nhs.uk/Id/ods-organization-code",
                                "value": "699X0"
                            }
                        },
                        "system": "https://fhir.nwgenomics.nhs.uk/iGene/ReportIdentifier",
                        "type": {
                            "coding": [
                                {
                                    "code": "FILL",
                                    "system": "http://terminology.hl7.org/CodeSystem/v2-0203"
                                }
                            ]
                        },
                        "value": "Gen825750"
                    }
                ],
                "performer": [
                    {
                        "identifier": {
                            "system": "https://fhir.nhs.uk/Id/ods-organization-code",
                            "value": "699X0"
                        },
                        "type": "Organization"
                    }
                ],
                "status": "final",
                "subject": {
                    "identifier": {
                        "system": "https://fhir.nhs.uk/Id/nhs-number",
                        "type": {
                            "coding": [
                                {
                                    "code": "NH",
                                    "system": "http://terminology.hl7.org/CodeSystem/v2-0203"
                                }
                            ]
                        },
                        "value": "9737383281"
                    },
                    "reference": "urn:uuid:0b04bbf5-f900-4fc5-aa30-87e961abee50"
                },
                "valueCodeableConcept": {
                    "coding": [
                        {
                            "code": "LA14029-5",
                            "display": "GRCh37",
                            "system": "http://loinc.org"
                        }
                    ]
                }
            }
        },
        {
            "fullUrl": "urn:uuid:d0e7d22a-7212-4f35-bc5e-e406a72f8dad",
            "resource": {
                "resourceType": "Observation",
                "code": {
                    "coding": [
                        {
                            "code": "82115-7",
                            "display": "dbSNP version",
                            "system": "http://loinc.org"
                        }
                    ]
                },
                "identifier": [
                    {
                        "assigner": {
                            "identifier": {
                                "system": "https://fhir.nhs.uk/Id/ods-organization-code",
                                "value": "699X0"
                            }
                        },
                        "system": "https://fhir.nwgenomics.nhs.uk/iGene/ReportIdentifier",
                        "type": {
                            "coding": [
                                {
                                    "code": "FILL",
                                    "system": "http://terminology.hl7.org/CodeSystem/v2-0203"
                                }
                            ]
                        },
                        "value": "Gen825750"
                    }
                ],
                "performer": [
                    {
                        "identifier": {
                            "system": "https://fhir.nhs.uk/Id/ods-organization-code",
                            "value": "699X0"
                        },
                        "type": "Organization"
                    }
                ],
                "status": "final",
                "subject": {
                    "identifier": {
                        "system": "https://fhir.nhs.uk/Id/nhs-number",
                        "type": {
                            "coding": [
                                {
                                    "code": "NH",
                                    "system": "http://terminology.hl7.org/CodeSystem/v2-0203"
                                }
                            ]
                        },
                        "value": "9737383281"
                    },
                    "reference": "urn:uuid:0b04bbf5-f900-4fc5-aa30-87e961abee50"
                },
                "valueQuantity": {
                    "system": "http://unitsofmeasure.org",
                    "unit": "Attributes of Discrete Genetic Variants: Report Section 2",
                    "value": 147
                }
            }
        },
        {
            "fullUrl": "urn:uuid:b1e3e6f1-8ed8-4986-b775-3dd8f5614ba3",
            "resource": {
                "resourceType": "Observation",
                "code": {
                    "coding": [
                        {
                            "code": "83005-9",
                            "display": "Variant Category",
                            "system": "http://loinc.org"
                        }
                    ]
                },
                "identifier": [
                    {
                        "assigner": {
                            "identifier": {
                                "system": "https://fhir.nhs.uk/Id/ods-organization-code",
                                "value": "699X0"
                            }
                        },
                        "system": "https://fhir.nwgenomics.nhs.uk/iGene/ReportIdentifier",
                        "type": {
                            "coding": [
                                {
                                    "code": "FILL",
                                    "system": "http://terminology.hl7.org/CodeSystem/v2-0203"
                                }
                            ]
                        },
                        "value": "Gen825750"
                    }
                ],
                "performer": [
                    {
                        "identifier": {
                            "system": "https://fhir.nhs.uk/Id/ods-organization-code",
                            "value": "699X0"
                        },
                        "type": "Organization"
                    }
                ],
                "status": "final",
                "subject": {
                    "identifier": {
                        "system": "https://fhir.nhs.uk/Id/nhs-number",
                        "type": {
                            "coding": [
                                {
                                    "code": "NH",
                                    "system": "http://terminology.hl7.org/CodeSystem/v2-0203"
                                }
                            ]
                        },
                        "value": "9737383281"
                    },
                    "reference": "urn:uuid:0b04bbf5-f900-4fc5-aa30-87e961abee50"
                },
                "valueCodeableConcept": {
                    "coding": [
                        {
                            "code": "LA26801-3",
                            "display": "Simple Variant",
                            "system": "http://loinc.org"
                        }
                    ]
                }
            }
        },
        {
            "fullUrl": "urn:uuid:ae7822bf-8d3a-4d30-9eeb-6bff5d10c89f",
            "resource": {
                "resourceType": "Observation",
                "code": {
                    "coding": [
                        {
                            "code": "81252-9",
                            "display": "Discrete genetic variant",
                            "system": "http://loinc.org"
                        }
                    ]
                },
                "identifier": [
                    {
                        "assigner": {
                            "identifier": {
                                "system": "https://fhir.nhs.uk/Id/ods-organization-code",
                                "value": "699X0"
                            }
                        },
                        "system": "https://fhir.nwgenomics.nhs.uk/iGene/ReportIdentifier",
                        "type": {
                            "coding": [
                                {
                                    "code": "FILL",
                                    "system": "http://terminology.hl7.org/CodeSystem/v2-0203"
                                }
                            ]
                        },
                        "value": "Gen825750"
                    }
                ],
                "performer": [
                    {
                        "identifier": {
                            "system": "https://fhir.nhs.uk/Id/ods-organization-code",
                            "value": "699X0"
                        },
                        "type": "Organization"
                    }
                ],
                "status": "final",
                "subject": {
                    "identifier": {
                        "system": "https://fhir.nhs.uk/Id/nhs-number",
                        "type": {
                            "coding": [
                                {
                                    "code": "NH",
                                    "system": "http://terminology.hl7.org/CodeSystem/v2-0203"
                                }
                            ]
                        },
                        "value": "9737383281"
                    },
                    "reference": "urn:uuid:0b04bbf5-f900-4fc5-aa30-87e961abee50"
                },
                "valueCodeableConcept": {
                    "coding": [
                        {
                            "code": "3614",
                            "display": "NM_000155.3(GALT):c.563A>G(p.Gln188Arg)",
                            "system": "http://www.ncbi.nlm.nih.gov/clinvar"
                        }
                    ]
                }
            }
        },
        {
            "fullUrl": "urn:uuid:bfb4096c-4599-40f4-aa21-8fed671a79c2",
            "resource": {
                "resourceType": "Observation",
                "code": {
                    "coding": [
                        {
                            "code": "48018-6",
                            "display": "Gene studied",
                            "system": "http://loinc.org"
                        }
                    ]
                },
                "identifier": [
                    {
                        "assigner": {
                            "identifier": {
                                "system": "https://fhir.nhs.uk/Id/ods-organization-code",
                                "value": "699X0"
                            }
                        },
                        "system": "https://fhir.nwgenomics.nhs.uk/iGene/ReportIdentifier",
                        "type": {
                            "coding": [
                                {
                                    "code": "FILL",
                                    "system": "http://terminology.hl7.org/CodeSystem/v2-0203"
                                }
                            ]
                        },
                        "value": "Gen825750"
                    }
                ],
                "performer": [
                    {
                        "identifier": {
                            "system": "https://fhir.nhs.uk/Id/ods-organization-code",
                            "value": "699X0"
                        },
                        "type": "Organization"
                    }
                ],
                "status": "final",
                "subject": {
                    "identifier": {
                        "system": "https://fhir.nhs.uk/Id/nhs-number",
                        "type": {
                            "coding": [
                                {
                                    "code": "NH",
                                    "system": "http://terminology.hl7.org/CodeSystem/v2-0203"
                                }
                            ]
                        },
                        "value": "9737383281"
                    },
                    "reference": "urn:uuid:0b04bbf5-f900-4fc5-aa30-87e961abee50"
                },
                "valueCodeableConcept": {
                    "coding": [
                        {
                            "code": "3614",
                            "display": "GALT",
                            "system": "http://www.genenames.org"
                        }
                    ]
                }
            }
        },
        {
            "fullUrl": "urn:uuid:59f6d83d-b2ce-40a8-a01b-5b75688d4c05",
            "resource": {
                "resourceType": "Observation",
                "code": {
                    "coding": [
                        {
                            "code": "51958-7",
                            "display": "Transcript RefSeq ID",
                            "system": "http://loinc.org"
                        }
                    ]
                },
                "identifier": [
                    {
                        "assigner": {
                            "identifier": {
                                "system": "https://fhir.nhs.uk/Id/ods-organization-code",
                                "value": "699X0"
                            }
                        },
                        "system": "https://fhir.nwgenomics.nhs.uk/iGene/ReportIdentifier",
                        "type": {
                            "coding": [
                                {
                                    "code": "FILL",
                                    "system": "http://terminology.hl7.org/CodeSystem/v2-0203"
                                }
                            ]
                        },
                        "value": "Gen825750"
                    }
                ],
                "performer": [
                    {
                        "identifier": {
                            "system": "https://fhir.nhs.uk/Id/ods-organization-code",
                            "value": "699X0"
                        },
                        "type": "Organization"
                    }
                ],
                "status": "final",
                "subject": {
                    "identifier": {
                        "system": "https://fhir.nhs.uk/Id/nhs-number",
                        "type": {
                            "coding": [
                                {
                                    "code": "NH",
                                    "system": "http://terminology.hl7.org/CodeSystem/v2-0203"
                                }
                            ]
                        },
                        "value": "9737383281"
                    },
                    "reference": "urn:uuid:0b04bbf5-f900-4fc5-aa30-87e961abee50"
                },
                "valueCodeableConcept": {
                    "coding": [
                        {
                            "code": "NM_000155.3",
                            "display": "NM_000155.3",
                            "system": "http://www.ncbi.nlm.nih.gov/refseq"
                        }
                    ]
                }
            }
        },
        {
            "fullUrl": "urn:uuid:23049cee-8a5b-42fa-8258-24d837800999",
            "resource": {
                "resourceType": "Observation",
                "code": {
                    "coding": [
                        {
                            "code": "41103-3",
                            "display": "Transcript DNA Change (cHGVS)",
                            "system": "http://loinc.org"
                        }
                    ]
                },
                "identifier": [
                    {
                        "assigner": {
                            "identifier": {
                                "system": "https://fhir.nhs.uk/Id/ods-organization-code",
                                "value": "699X0"
                            }
                        },
                        "system": "https://fhir.nwgenomics.nhs.uk/iGene/ReportIdentifier",
                        "type": {
                            "coding": [
                                {
                                    "code": "FILL",
                                    "system": "http://terminology.hl7.org/CodeSystem/v2-0203"
                                }
                            ]
                        },
                        "value": "Gen825750"
                    }
                ],
                "performer": [
                    {
                        "identifier": {
                            "system": "https://fhir.nhs.uk/Id/ods-organization-code",
                            "value": "699X0"
                        },
                        "type": "Organization"
                    }
                ],
                "status": "final",
                "subject": {
                    "identifier": {
                        "system": "https://fhir.nhs.uk/Id/nhs-number",
                        "type": {
                            "coding": [
                                {
                                    "code": "NH",
                                    "system": "http://terminology.hl7.org/CodeSystem/v2-0203"
                                }
                            ]
                        },
                        "value": "9737383281"
                    },
                    "reference": "urn:uuid:0b04bbf5-f900-4fc5-aa30-87e961abee50"
                },
                "valueCodeableConcept": {
                    "coding": [
                        {
                            "code": "c.563A>G",
                            "display": "c.563A>G",
                            "system": "http://varnomen.hgvs.org"
                        }
                    ]
                }
            }
        },
        {
            "fullUrl": "urn:uuid:ab0a73ac-1c0a-4546-ac98-1684ae4b5626",
            "resource": {
                "resourceType": "Observation",
                "code": {
                    "coding": [
                        {
                            "code": "48005-3",
                            "display": "Amino acid change p.HGVS",
                            "system": "http://loinc.org"
                        }
                    ]
                },
                "identifier": [
                    {
                        "assigner": {
                            "identifier": {
                                "system": "https://fhir.nhs.uk/Id/ods-organization-code",
                                "value": "699X0"
                            }
                        },
                        "system": "https://fhir.nwgenomics.nhs.uk/iGene/ReportIdentifier",
                        "type": {
                            "coding": [
                                {
                                    "code": "FILL",
                                    "system": "http://terminology.hl7.org/CodeSystem/v2-0203"
                                }
                            ]
                        },
                        "value": "Gen825750"
                    }
                ],
                "performer": [
                    {
                        "identifier": {
                            "system": "https://fhir.nhs.uk/Id/ods-organization-code",
                            "value": "699X0"
                        },
                        "type": "Organization"
                    }
                ],
                "status": "final",
                "subject": {
                    "identifier": {
                        "system": "https://fhir.nhs.uk/Id/nhs-number",
                        "type": {
                            "coding": [
                                {
                                    "code": "NH",
                                    "system": "http://terminology.hl7.org/CodeSystem/v2-0203"
                                }
                            ]
                        },
                        "value": "9737383281"
                    },
                    "reference": "urn:uuid:0b04bbf5-f900-4fc5-aa30-87e961abee50"
                },
                "valueCodeableConcept": {
                    "coding": [
                        {
                            "code": "p.Gln188Arg",
                            "display": "p.Gln188Arg",
                            "system": "http://varnomen.hgvs.org"
                        }
                    ]
                }
            }
        },
        {
            "fullUrl": "urn:uuid:d05cd418-5190-4073-9c7e-85d6050100a6",
            "resource": {
                "resourceType": "Observation",
                "code": {
                    "coding": [
                        {
                            "code": "48019-4",
                            "display": "DNA change type",
                            "system": "http://loinc.org"
                        }
                    ]
                },
                "identifier": [
                    {
                        "assigner": {
                            "identifier": {
                                "system": "https://fhir.nhs.uk/Id/ods-organization-code",
                                "value": "699X0"
                            }
                        },
                        "system": "https://fhir.nwgenomics.nhs.uk/iGene/ReportIdentifier",
                        "type": {
                            "coding": [
                                {
                                    "code": "FILL",
                                    "system": "http://terminology.hl7.org/CodeSystem/v2-0203"
                                }
                            ]
                        },
                        "value": "Gen825750"
                    }
                ],
                "performer": [
                    {
                        "identifier": {
                            "system": "https://fhir.nhs.uk/Id/ods-organization-code",
                            "value": "699X0"
                        },
                        "type": "Organization"
                    }
                ],
                "status": "final",
                "subject": {
                    "identifier": {
                        "system": "https://fhir.nhs.uk/Id/nhs-number",
                        "type": {
                            "coding": [
                                {
                                    "code": "NH",
                                    "system": "http://terminology.hl7.org/CodeSystem/v2-0203"
                                }
                            ]
                        },
                        "value": "9737383281"
                    },
                    "reference": "urn:uuid:0b04bbf5-f900-4fc5-aa30-87e961abee50"
                },
                "valueCodeableConcept": {
                    "coding": [
                        {
                            "code": "LA6690-7",
                            "display": "Substitution",
                            "system": "http://loinc.org"
                        }
                    ]
                }
            }
        },
        {
            "fullUrl": "urn:uuid:11d22267-3751-4b7f-ae4a-ef976c813b93",
            "resource": {
                "resourceType": "Observation",
                "code": {
                    "coding": [
                        {
                            "code": "48006-1",
                            "display": "Amino Acid change type"
                        }
                    ]
                },
                "identifier": [
                    {
                        "assigner": {
                            "identifier": {
                                "system": "https://fhir.nhs.uk/Id/ods-organization-code",
                                "value": "699X0"
                            }
                        },
                        "system": "https://fhir.nwgenomics.nhs.uk/iGene/ReportIdentifier",
                        "type": {
                            "coding": [
                                {
                                    "code": "FILL",
                                    "system": "http://terminology.hl7.org/CodeSystem/v2-0203"
                                }
                            ]
                        },
                        "value": "Gen825750"
                    }
                ],
                "performer": [
                    {
                        "identifier": {
                            "system": "https://fhir.nhs.uk/Id/ods-organization-code",
                            "value": "699X0"
                        },
                        "type": "Organization"
                    }
                ],
                "status": "final",
                "subject": {
                    "identifier": {
                        "system": "https://fhir.nhs.uk/Id/nhs-number",
                        "type": {
                            "coding": [
                                {
                                    "code": "NH",
                                    "system": "http://terminology.hl7.org/CodeSystem/v2-0203"
                                }
                            ]
                        },
                        "value": "9737383281"
                    },
                    "reference": "urn:uuid:0b04bbf5-f900-4fc5-aa30-87e961abee50"
                },
                "valueCodeableConcept": {
                    "coding": [
                        {
                            "code": "LA6698-0",
                            "display": "Missense",
                            "system": "http://loinc.org"
                        }
                    ]
                }
            }
        },
        {
            "fullUrl": "urn:uuid:b095d6a8-1767-445b-9602-430f2eae29ba",
            "resource": {
                "resourceType": "Observation",
                "code": {
                    "coding": [
                        {
                            "code": "48013-7",
                            "display": "Genomic reference sequence",
                            "system": "http://loinc.org"
                        }
                    ]
                },
                "identifier": [
                    {
                        "assigner": {
                            "identifier": {
                                "system": "https://fhir.nhs.uk/Id/ods-organization-code",
                                "value": "699X0"
                            }
                        },
                        "system": "https://fhir.nwgenomics.nhs.uk/iGene/ReportIdentifier",
                        "type": {
                            "coding": [
                                {
                                    "code": "FILL",
                                    "system": "http://terminology.hl7.org/CodeSystem/v2-0203"
                                }
                            ]
                        },
                        "value": "Gen825750"
                    }
                ],
                "performer": [
                    {
                        "identifier": {
                            "system": "https://fhir.nhs.uk/Id/ods-organization-code",
                            "value": "699X0"
                        },
                        "type": "Organization"
                    }
                ],
                "status": "final",
                "subject": {
                    "identifier": {
                        "system": "https://fhir.nhs.uk/Id/nhs-number",
                        "type": {
                            "coding": [
                                {
                                    "code": "NH",
                                    "system": "http://terminology.hl7.org/CodeSystem/v2-0203"
                                }
                            ]
                        },
                        "value": "9737383281"
                    },
                    "reference": "urn:uuid:0b04bbf5-f900-4fc5-aa30-87e961abee50"
                },
                "valueCodeableConcept": {
                    "coding": [
                        {
                            "code": "NG_009029.1:g.6533A>G",
                            "display": "NG_009029.1:g.6533A>G",
                            "system": "http://www.ncbi.nlm.nih.gov/refseq"
                        }
                    ]
                }
            }
        },
        {
            "fullUrl": "urn:uuid:d0fae322-bc74-4a9c-b1b0-a55230366232",
            "resource": {
                "resourceType": "Observation",
                "code": {
                    "coding": [
                        {
                            "code": "81290-9",
                            "display": "Genomic DNA change(gHGVS)",
                            "system": "http://loinc.org"
                        }
                    ]
                },
                "identifier": [
                    {
                        "assigner": {
                            "identifier": {
                                "system": "https://fhir.nhs.uk/Id/ods-organization-code",
                                "value": "699X0"
                            }
                        },
                        "system": "https://fhir.nwgenomics.nhs.uk/iGene/ReportIdentifier",
                        "type": {
                            "coding": [
                                {
                                    "code": "FILL",
                                    "system": "http://terminology.hl7.org/CodeSystem/v2-0203"
                                }
                            ]
                        },
                        "value": "Gen825750"
                    }
                ],
                "performer": [
                    {
                        "identifier": {
                            "system": "https://fhir.nhs.uk/Id/ods-organization-code",
                            "value": "699X0"
                        },
                        "type": "Organization"
                    }
                ],
                "status": "final",
                "subject": {
                    "identifier": {
                        "system": "https://fhir.nhs.uk/Id/nhs-number",
                        "type": {
                            "coding": [
                                {
                                    "code": "NH",
                                    "system": "http://terminology.hl7.org/CodeSystem/v2-0203"
                                }
                            ]
                        },
                        "value": "9737383281"
                    },
                    "reference": "urn:uuid:0b04bbf5-f900-4fc5-aa30-87e961abee50"
                },
                "valueCodeableConcept": {
                    "coding": [
                        {
                            "code": "NC_000009.11:g.34648167A>G",
                            "display": "NC_000009.11:g.34648167A>G",
                            "system": "http://varnomen.hgvs.org"
                        }
                    ]
                }
            }
        },
        {
            "fullUrl": "urn:uuid:e8c8084b-a3ec-4cca-bf64-eec3a7c134a6",
            "resource": {
                "resourceType": "Observation",
                "code": {
                    "coding": [
                        {
                            "code": "69547-8",
                            "display": "Genomic ref allele",
                            "system": "http://loinc.org"
                        }
                    ]
                },
                "identifier": [
                    {
                        "assigner": {
                            "identifier": {
                                "system": "https://fhir.nhs.uk/Id/ods-organization-code",
                                "value": "699X0"
                            }
                        },
                        "system": "https://fhir.nwgenomics.nhs.uk/iGene/ReportIdentifier",
                        "type": {
                            "coding": [
                                {
                                    "code": "FILL",
                                    "system": "http://terminology.hl7.org/CodeSystem/v2-0203"
                                }
                            ]
                        },
                        "value": "Gen825750"
                    }
                ],
                "performer": [
                    {
                        "identifier": {
                            "system": "https://fhir.nhs.uk/Id/ods-organization-code",
                            "value": "699X0"
                        },
                        "type": "Organization"
                    }
                ],
                "status": "final",
                "subject": {
                    "identifier": {
                        "system": "https://fhir.nhs.uk/Id/nhs-number",
                        "type": {
                            "coding": [
                                {
                                    "code": "NH",
                                    "system": "http://terminology.hl7.org/CodeSystem/v2-0203"
                                }
                            ]
                        },
                        "value": "9737383281"
                    },
                    "reference": "urn:uuid:0b04bbf5-f900-4fc5-aa30-87e961abee50"
                },
                "valueString": "A"
            }
        },
        {
            "fullUrl": "urn:uuid:2d066b4c-1a17-4ae3-a9ae-d8447bb9aa3d",
            "resource": {
                "resourceType": "Observation",
                "code": {
                    "coding": [
                        {
                            "code": "81254-5",
                            "display": "Genomic allele start-end",
                            "system": "http://loinc.org"
                        }
                    ]
                },
                "identifier": [
                    {
                        "assigner": {
                            "identifier": {
                                "system": "https://fhir.nhs.uk/Id/ods-organization-code",
                                "value": "699X0"
                            }
                        },
                        "system": "https://fhir.nwgenomics.nhs.uk/iGene/ReportIdentifier",
                        "type": {
                            "coding": [
                                {
                                    "code": "FILL",
                                    "system": "http://terminology.hl7.org/CodeSystem/v2-0203"
                                }
                            ]
                        },
                        "value": "Gen825750"
                    }
                ],
                "performer": [
                    {
                        "identifier": {
                            "system": "https://fhir.nhs.uk/Id/ods-organization-code",
                            "value": "699X0"
                        },
                        "type": "Organization"
                    }
                ],
                "status": "final",
                "subject": {
                    "identifier": {
                        "system": "https://fhir.nhs.uk/Id/nhs-number",
                        "type": {
                            "coding": [
                                {
                                    "code": "NH",
                                    "system": "http://terminology.hl7.org/CodeSystem/v2-0203"
                                }
                            ]
                        },
                        "value": "9737383281"
                    },
                    "reference": "urn:uuid:0b04bbf5-f900-4fc5-aa30-87e961abee50"
                }
            }
        },
        {
            "fullUrl": "urn:uuid:eafde597-3895-4d49-8cb9-c197d2135550",
            "resource": {
                "resourceType": "Observation",
                "code": {
                    "coding": [
                        {
                            "code": "69551-0",
                            "display": "Genomic alt allele",
                            "system": "http://loinc.org"
                        }
                    ]
                },
                "identifier": [
                    {
                        "assigner": {
                            "identifier": {
                                "system": "https://fhir.nhs.uk/Id/ods-organization-code",
                                "value": "699X0"
                            }
                        },
                        "system": "https://fhir.nwgenomics.nhs.uk/iGene/ReportIdentifier",
                        "type": {
                            "coding": [
                                {
                                    "code": "FILL",
                                    "system": "http://terminology.hl7.org/CodeSystem/v2-0203"
                                }
                            ]
                        },
                        "value": "Gen825750"
                    }
                ],
                "performer": [
                    {
                        "identifier": {
                            "system": "https://fhir.nhs.uk/Id/ods-organization-code",
                            "value": "699X0"
                        },
                        "type": "Organization"
                    }
                ],
                "status": "final",
                "subject": {
                    "identifier": {
                        "system": "https://fhir.nhs.uk/Id/nhs-number",
                        "type": {
                            "coding": [
                                {
                                    "code": "NH",
                                    "system": "http://terminology.hl7.org/CodeSystem/v2-0203"
                                }
                            ]
                        },
                        "value": "9737383281"
                    },
                    "reference": "urn:uuid:0b04bbf5-f900-4fc5-aa30-87e961abee50"
                },
                "valueString": "G"
            }
        },
        {
            "fullUrl": "urn:uuid:24b30e28-c0b4-47ae-b54a-faaafdcdeff8",
            "resource": {
                "resourceType": "Observation",
                "code": {
                    "coding": [
                        {
                            "code": "81255-2",
                            "display": "dbSNP ID",
                            "system": "http://loinc.org"
                        }
                    ]
                },
                "identifier": [
                    {
                        "assigner": {
                            "identifier": {
                                "system": "https://fhir.nhs.uk/Id/ods-organization-code",
                                "value": "699X0"
                            }
                        },
                        "system": "https://fhir.nwgenomics.nhs.uk/iGene/ReportIdentifier",
                        "type": {
                            "coding": [
                                {
                                    "code": "FILL",
                                    "system": "http://terminology.hl7.org/CodeSystem/v2-0203"
                                }
                            ]
                        },
                        "value": "Gen825750"
                    }
                ],
                "performer": [
                    {
                        "identifier": {
                            "system": "https://fhir.nhs.uk/Id/ods-organization-code",
                            "value": "699X0"
                        },
                        "type": "Organization"
                    }
                ],
                "status": "final",
                "subject": {
                    "identifier": {
                        "system": "https://fhir.nhs.uk/Id/nhs-number",
                        "type": {
                            "coding": [
                                {
                                    "code": "NH",
                                    "system": "http://terminology.hl7.org/CodeSystem/v2-0203"
                                }
                            ]
                        },
                        "value": "9737383281"
                    },
                    "reference": "urn:uuid:0b04bbf5-f900-4fc5-aa30-87e961abee50"
                },
                "valueCodeableConcept": {
                    "coding": [
                        {
                            "code": "rs75391579",
                            "display": "rs75391579",
                            "system": "http://www.ncbi.nlm.nih.gov/projects/SNP"
                        }
                    ]
                }
            }
        },
        {
            "fullUrl": "urn:uuid:c4cdcdba-0d7f-43a6-9c92-b0c960b53254",
            "resource": {
                "resourceType": "Observation",
                "code": {
                    "coding": [
                        {
                            "code": "48001-2",
                            "display": "Cytogenetic (chromosome) location",
                            "system": "http://loinc.org"
                        }
                    ]
                },
                "identifier": [
                    {
                        "assigner": {
                            "identifier": {
                                "system": "https://fhir.nhs.uk/Id/ods-organization-code",
                                "value": "699X0"
                            }
                        },
                        "system": "https://fhir.nwgenomics.nhs.uk/iGene/ReportIdentifier",
                        "type": {
                            "coding": [
                                {
                                    "code": "FILL",
                                    "system": "http://terminology.hl7.org/CodeSystem/v2-0203"
                                }
                            ]
                        },
                        "value": "Gen825750"
                    }
                ],
                "performer": [
                    {
                        "identifier": {
                            "system": "https://fhir.nhs.uk/Id/ods-organization-code",
                            "value": "699X0"
                        },
                        "type": "Organization"
                    }
                ],
                "status": "final",
                "subject": {
                    "identifier": {
                        "system": "https://fhir.nhs.uk/Id/nhs-number",
                        "type": {
                            "coding": [
                                {
                                    "code": "NH",
                                    "system": "http://terminology.hl7.org/CodeSystem/v2-0203"
                                }
                            ]
                        },
                        "value": "9737383281"
                    },
                    "reference": "urn:uuid:0b04bbf5-f900-4fc5-aa30-87e961abee50"
                },
                "valueCodeableConcept": {
                    "coding": [
                        {
                            "code": "9p13",
                            "display": "9p13",
                            "system": "Chrom-Loc"
                        }
                    ]
                }
            }
        },
        {
            "fullUrl": "urn:uuid:04f6eec8-5765-4f6f-9aa9-19888de78896",
            "resource": {
                "resourceType": "Observation",
                "code": {
                    "coding": [
                        {
                            "code": "48002-0",
                            "display": "Genomic source class",
                            "system": "http://loinc.org"
                        }
                    ]
                },
                "identifier": [
                    {
                        "assigner": {
                            "identifier": {
                                "system": "https://fhir.nhs.uk/Id/ods-organization-code",
                                "value": "699X0"
                            }
                        },
                        "system": "https://fhir.nwgenomics.nhs.uk/iGene/ReportIdentifier",
                        "type": {
                            "coding": [
                                {
                                    "code": "FILL",
                                    "system": "http://terminology.hl7.org/CodeSystem/v2-0203"
                                }
                            ]
                        },
                        "value": "Gen825750"
                    }
                ],
                "performer": [
                    {
                        "identifier": {
                            "system": "https://fhir.nhs.uk/Id/ods-organization-code",
                            "value": "699X0"
                        },
                        "type": "Organization"
                    }
                ],
                "status": "final",
                "subject": {
                    "identifier": {
                        "system": "https://fhir.nhs.uk/Id/nhs-number",
                        "type": {
                            "coding": [
                                {
                                    "code": "NH",
                                    "system": "http://terminology.hl7.org/CodeSystem/v2-0203"
                                }
                            ]
                        },
                        "value": "9737383281"
                    },
                    "reference": "urn:uuid:0b04bbf5-f900-4fc5-aa30-87e961abee50"
                },
                "valueCodeableConcept": {
                    "coding": [
                        {
                            "code": "LA6683-2",
                            "display": "Germline",
                            "system": "http://loinc.org"
                        }
                    ]
                }
            }
        },
        {
            "fullUrl": "urn:uuid:464c9b4d-b078-483f-b4d8-a884caa7ca40",
            "resource": {
                "resourceType": "Observation",
                "code": {
                    "coding": [
                        {
                            "code": "81304-8",
                            "display": "Variant analysis method type",
                            "system": "http://loinc.org"
                        }
                    ]
                },
                "identifier": [
                    {
                        "assigner": {
                            "identifier": {
                                "system": "https://fhir.nhs.uk/Id/ods-organization-code",
                                "value": "699X0"
                            }
                        },
                        "system": "https://fhir.nwgenomics.nhs.uk/iGene/ReportIdentifier",
                        "type": {
                            "coding": [
                                {
                                    "code": "FILL",
                                    "system": "http://terminology.hl7.org/CodeSystem/v2-0203"
                                }
                            ]
                        },
                        "value": "Gen825750"
                    }
                ],
                "performer": [
                    {
                        "identifier": {
                            "system": "https://fhir.nhs.uk/Id/ods-organization-code",
                            "value": "699X0"
                        },
                        "type": "Organization"
                    }
                ],
                "status": "final",
                "subject": {
                    "identifier": {
                        "system": "https://fhir.nhs.uk/Id/nhs-number",
                        "type": {
                            "coding": [
                                {
                                    "code": "NH",
                                    "system": "http://terminology.hl7.org/CodeSystem/v2-0203"
                                }
                            ]
                        },
                        "value": "9737383281"
                    },
                    "reference": "urn:uuid:0b04bbf5-f900-4fc5-aa30-87e961abee50"
                },
                "valueCodeableConcept": {
                    "coding": [
                        {
                            "code": "LA26418-6",
                            "display": "PCR",
                            "system": "http://loinc.org"
                        }
                    ]
                }
            }
        },
        {
            "fullUrl": "urn:uuid:3bb09cc0-c365-471b-b4e6-11bf83600975",
            "resource": {
                "resourceType": "Observation",
                "code": {
                    "coding": [
                        {
                            "code": "53037-8",
                            "display": "Genetic variation clinical significance",
                            "system": "http://loinc.org"
                        }
                    ]
                },
                "identifier": [
                    {
                        "assigner": {
                            "identifier": {
                                "system": "https://fhir.nhs.uk/Id/ods-organization-code",
                                "value": "699X0"
                            }
                        },
                        "system": "https://fhir.nwgenomics.nhs.uk/iGene/ReportIdentifier",
                        "type": {
                            "coding": [
                                {
                                    "code": "FILL",
                                    "system": "http://terminology.hl7.org/CodeSystem/v2-0203"
                                }
                            ]
                        },
                        "value": "Gen825750"
                    }
                ],
                "performer": [
                    {
                        "identifier": {
                            "system": "https://fhir.nhs.uk/Id/ods-organization-code",
                            "value": "699X0"
                        },
                        "type": "Organization"
                    }
                ],
                "status": "final",
                "subject": {
                    "identifier": {
                        "system": "https://fhir.nhs.uk/Id/nhs-number",
                        "type": {
                            "coding": [
                                {
                                    "code": "NH",
                                    "system": "http://terminology.hl7.org/CodeSystem/v2-0203"
                                }
                            ]
                        },
                        "value": "9737383281"
                    },
                    "reference": "urn:uuid:0b04bbf5-f900-4fc5-aa30-87e961abee50"
                },
                "valueCodeableConcept": {
                    "coding": [
                        {
                            "code": "LA6668-3",
                            "display": "Pathogenic",
                            "system": "http://loinc.org"
                        }
                    ]
                }
            }
        },
        {
            "fullUrl": "urn:uuid:5b4bd593-4273-44ad-a118-7478a63a52b1",
            "resource": {
                "resourceType": "Observation",
                "code": {
                    "coding": [
                        {
                            "code": "69548-6",
                            "display": "Genetic variant assessment",
                            "system": "http://loinc.org"
                        }
                    ]
                },
                "identifier": [
                    {
                        "assigner": {
                            "identifier": {
                                "system": "https://fhir.nhs.uk/Id/ods-organization-code",
                                "value": "699X0"
                            }
                        },
                        "system": "https://fhir.nwgenomics.nhs.uk/iGene/ReportIdentifier",
                        "type": {
                            "coding": [
                                {
                                    "code": "FILL",
                                    "system": "http://terminology.hl7.org/CodeSystem/v2-0203"
                                }
                            ]
                        },
                        "value": "Gen825750"
                    }
                ],
                "performer": [
                    {
                        "identifier": {
                            "system": "https://fhir.nhs.uk/Id/ods-organization-code",
                            "value": "699X0"
                        },
                        "type": "Organization"
                    }
                ],
                "status": "final",
                "subject": {
                    "identifier": {
                        "system": "https://fhir.nhs.uk/Id/nhs-number",
                        "type": {
                            "coding": [
                                {
                                    "code": "NH",
                                    "system": "http://terminology.hl7.org/CodeSystem/v2-0203"
                                }
                            ]
                        },
                        "value": "9737383281"
                    },
                    "reference": "urn:uuid:0b04bbf5-f900-4fc5-aa30-87e961abee50"
                },
                "valueCodeableConcept": {
                    "coding": [
                        {
                            "code": "LA9633-4",
                            "display": "Present",
                            "system": "http://loinc.org"
                        }
                    ]
                }
            }
        },
        {
            "fullUrl": "urn:uuid:adbbc19d-9f65-46dd-a099-1cb9a5babec9",
            "resource": {
                "resourceType": "Observation",
                "code": {
                    "coding": [
                        {
                            "code": "81259-4",
                            "display": "Probable associated phenotype",
                            "system": "http://loinc.org"
                        }
                    ]
                },
                "identifier": [
                    {
                        "assigner": {
                            "identifier": {
                                "system": "https://fhir.nhs.uk/Id/ods-organization-code",
                                "value": "699X0"
                            }
                        },
                        "system": "https://fhir.nwgenomics.nhs.uk/iGene/ReportIdentifier",
                        "type": {
                            "coding": [
                                {
                                    "code": "FILL",
                                    "system": "http://terminology.hl7.org/CodeSystem/v2-0203"
                                }
                            ]
                        },
                        "value": "Gen825750"
                    }
                ],
                "performer": [
                    {
                        "identifier": {
                            "system": "https://fhir.nhs.uk/Id/ods-organization-code",
                            "value": "699X0"
                        },
                        "type": "Organization"
                    }
                ],
                "status": "final",
                "subject": {
                    "identifier": {
                        "system": "https://fhir.nhs.uk/Id/nhs-number",
                        "type": {
                            "coding": [
                                {
                                    "code": "NH",
                                    "system": "http://terminology.hl7.org/CodeSystem/v2-0203"
                                }
                            ]
                        },
                        "value": "9737383281"
                    },
                    "reference": "urn:uuid:0b04bbf5-f900-4fc5-aa30-87e961abee50"
                },
                "valueCodeableConcept": {
                    "coding": [
                        {
                            "code": "C0268151",
                            "display": "Deficiency of UDPglucose-hexose-1-phosphateuridylyltransferase",
                            "system": "MedGen-Dis"
                        }
                    ]
                }
            }
        },
        {
            "fullUrl": "urn:uuid:64a76326-44af-4d08-a794-b9888eb6f31b",
            "resource": {
                "resourceType": "Observation",
                "code": {
                    "coding": [
                        {
                            "code": "53034-5",
                            "display": "Allelic state",
                            "system": "http://loinc.org"
                        }
                    ]
                },
                "identifier": [
                    {
                        "assigner": {
                            "identifier": {
                                "system": "https://fhir.nhs.uk/Id/ods-organization-code",
                                "value": "699X0"
                            }
                        },
                        "system": "https://fhir.nwgenomics.nhs.uk/iGene/ReportIdentifier",
                        "type": {
                            "coding": [
                                {
                                    "code": "FILL",
                                    "system": "http://terminology.hl7.org/CodeSystem/v2-0203"
                                }
                            ]
                        },
                        "value": "Gen825750"
                    }
                ],
                "performer": [
                    {
                        "identifier": {
                            "system": "https://fhir.nhs.uk/Id/ods-organization-code",
                            "value": "699X0"
                        },
                        "type": "Organization"
                    }
                ],
                "status": "final",
                "subject": {
                    "identifier": {
                        "system": "https://fhir.nhs.uk/Id/nhs-number",
                        "type": {
                            "coding": [
                                {
                                    "code": "NH",
                                    "system": "http://terminology.hl7.org/CodeSystem/v2-0203"
                                }
                            ]
                        },
                        "value": "9737383281"
                    },
                    "reference": "urn:uuid:0b04bbf5-f900-4fc5-aa30-87e961abee50"
                },
                "valueCodeableConcept": {
                    "coding": [
                        {
                            "code": "LA6706-1",
                            "display": "Heterozygous",
                            "system": "http://loinc.org"
                        }
                    ]
                }
            }
        },
        {
            "fullUrl": "urn:uuid:ed19696d-1138-4aca-90b7-17fb5a67d00b",
            "resource": {
                "resourceType": "ServiceRequest",
                "authoredOn": "2016-08-03",
                "category": [
                    {
                        "coding": [
                            {
                                "code": "116148004",
                                "system": "http://snomed.info/sct"
                            }
                        ]
                    }
                ],
                "code": {
                    "coding": [
                        {
                            "code": "42318-6",
                            "display": "GALT gene targeted mutation analysis",
                            "system": "http://loinc.org"
                        }
                    ]
                },
                "identifier": [
                    {
                        "assigner": {
                            "identifier": {
                                "system": "https://fhir.nhs.uk/Id/ods-organization-code",
                                "value": "R0A"
                            }
                        },
                        "type": {
                            "coding": [
                                {
                                    "code": "PLAC",
                                    "system": "http://terminology.hl7.org/CodeSystem/v2-0203"
                                }
                            ]
                        },
                        "value": "LRI-1601716017"
                    }
                ],
                "intent": "order",
                "requester": {
                    "display": "Manchester University NHS Foundation Trust",
                    "identifier": {
                        "system": "https://fhir.nhs.uk/Id/ods-organization-code",
                        "value": "R0A"
                    },
                    "type": "Organization"
                },
                "status": "active",
                "subject": {
                    "identifier": {
                        "system": "https://fhir.nhs.uk/Id/nhs-number",
                        "type": {
                            "coding": [
                                {
                                    "code": "NH",
                                    "system": "http://terminology.hl7.org/CodeSystem/v2-0203"
                                }
                            ]
                        },
                        "value": "9737383281"
                    },
                    "reference": "urn:uuid:0b04bbf5-f900-4fc5-aa30-87e961abee50"
                }
            }
        },
        {
            "fullUrl": "urn:uuid:abcf766c-e9e4-4801-af44-9120b67df945",
            "resource": {
                "resourceType": "DiagnosticReport",
                "basedOn": [
                    {
                        "identifier": {
                            "assigner": {
                                "identifier": {
                                    "system": "https://fhir.nhs.uk/Id/ods-organization-code",
                                    "value": "R0A"
                                }
                            },
                            "type": {
                                "coding": [
                                    {
                                        "code": "PLAC",
                                        "system": "http://terminology.hl7.org/CodeSystem/v2-0203"
                                    }
                                ]
                            },
                            "value": "LRI-1601716017"
                        },
                        "reference": "urn:uuid:ed19696d-1138-4aca-90b7-17fb5a67d00b",
                        "type": "ServiceRequest"
                    }
                ],
                "category": [
                    {
                        "coding": [
                            {
                                "code": "GE",
                                "system": "http://terminology.hl7.org/CodeSystem/v2-0074"
                            }
                        ]
                    }
                ],
                "code": {
                    "coding": [
                        {
                            "code": "42318-6",
                            "display": "GALT gene targeted mutation analysis",
                            "system": "http://loinc.org"
                        }
                    ]
                },
                "effectiveDateTime": "2016-08-09T16:50:00+00:00",
                "extension": [
                    {
                        "extension": [
                            {
                                "url": "reference",
                                "valueReference": {
                                    "display": "Genetic report",
                                    "reference": "urn:uuid:3df70387-ce29-4c96-bec3-c05d5d0e77fc",
                                    "type": "DocumentReference"
                                }
                            },
                            {
                                "url": "type",
                                "valueCodeableConcept": {
                                    "coding": [
                                        {
                                            "code": "SCI",
                                            "system": "http://hl7.org/fhir/diagnosticreport-relevant-information-types"
                                        }
                                    ]
                                }
                            }
                        ],
                        "url": "http://hl7.org/fhir/5.0/StructureDefinition/extension-DiagnosticReport.supportingInfo"
                    }
                ],
                "identifier": [
                    {
                        "assigner": {
                            "identifier": {
                                "system": "https://fhir.nhs.uk/Id/ods-organization-code",
                                "value": "699X0"
                            }
                        },
                        "system": "https://fhir.nwgenomics.nhs.uk/iGene/ReportIdentifier",
                        "type": {
                            "coding": [
                                {
                                    "code": "FILL",
                                    "system": "http://terminology.hl7.org/CodeSystem/v2-0203"
                                }
                            ]
                        },
                        "value": "Gen825750"
                    }
                ],
                "performer": [
                    {
                        "display": "NHS North West Genomics",
                        "identifier": {
                            "system": "https://fhir.nhs.uk/Id/ods-organization-code",
                            "value": "699X0"
                        },
                        "type": "Organization"
                    }
                ],
                "presentedForm": [
                    {
                        "contentType": "application/pdf",
                        "url": "urn:uuid:cc5a6fbc-73f3-425d-9ba8-0d8bbceba771"
                    }
                ],
                "result": [
                    {
                        "display": "Reason for study",
                        "reference": "urn:uuid:7300df92-7c36-4aa9-8486-438f16006c60",
                        "type": "Observation"
                    },
                    {
                        "display": "Genetic disease(s) assessed",
                        "reference": "urn:uuid:c5df5813-f30d-40fa-bb66-98cc85459806",
                        "type": "Observation"
                    },
                    {
                        "display": "Transcript reference sequence [Identifier]",
                        "reference": "urn:uuid:2443dc51-aa6c-4df6-8489-814117530693",
                        "type": "Observation"
                    },
                    {
                        "display": "Gene studied [ID]",
                        "reference": "urn:uuid:2cd21b7f-c78a-46b8-97ab-de429a3cb0f6",
                        "type": "Observation"
                    },
                    {
                        "display": "Gene mutations tested",
                        "reference": "urn:uuid:3a8793e7-d0ba-44ca-85ab-d54fd53b4ad2",
                        "type": "Observation"
                    },
                    {
                        "display": "Gene mutations tested",
                        "reference": "urn:uuid:90bb103c-28dd-4ce1-9f19-60bc98a4d1b5",
                        "type": "Observation"
                    },
                    {
                        "display": "Gene mutations tested",
                        "reference": "urn:uuid:ad2af95f-aec2-404c-b8ea-b72940a42fae",
                        "type": "Observation"
                    },
                    {
                        "display": "Discrete variation analysis overall interpretation",
                        "reference": "urn:uuid:f092ee89-4bac-457a-87d0-e902f2ef0ff4",
                        "type": "Observation"
                    },
                    {
                        "display": "Human reference sequence assembly",
                        "reference": "urn:uuid:66ee3909-e238-473c-a4bc-1063b4323790",
                        "type": "Observation"
                    },
                    {
                        "display": "dbSNP version",
                        "reference": "urn:uuid:d0e7d22a-7212-4f35-bc5e-e406a72f8dad",
                        "type": "Observation"
                    },
                    {
                        "display": "Variant Category",
                        "reference": "urn:uuid:b1e3e6f1-8ed8-4986-b775-3dd8f5614ba3",
                        "type": "Observation"
                    },
                    {
                        "display": "Discrete genetic variant",
                        "reference": "urn:uuid:ae7822bf-8d3a-4d30-9eeb-6bff5d10c89f",
                        "type": "Observation"
                    },
                    {
                        "display": "Gene studied",
                        "reference": "urn:uuid:bfb4096c-4599-40f4-aa21-8fed671a79c2",
                        "type": "Observation"
                    },
                    {
                        "display": "Transcript RefSeq ID",
                        "reference": "urn:uuid:59f6d83d-b2ce-40a8-a01b-5b75688d4c05",
                        "type": "Observation"
                    },
                    {
                        "display": "Transcript DNA Change (cHGVS)",
                        "reference": "urn:uuid:23049cee-8a5b-42fa-8258-24d837800999",
                        "type": "Observation"
                    },
                    {
                        "display": "Amino acid change p.HGVS",
                        "reference": "urn:uuid:ab0a73ac-1c0a-4546-ac98-1684ae4b5626",
                        "type": "Observation"
                    },
                    {
                        "display": "DNA change type",
                        "reference": "urn:uuid:d05cd418-5190-4073-9c7e-85d6050100a6",
                        "type": "Observation"
                    },
                    {
                        "display": "Amino Acid change type",
                        "reference": "urn:uuid:11d22267-3751-4b7f-ae4a-ef976c813b93",
                        "type": "Observation"
                    },
                    {
                        "display": "Genomic reference sequence",
                        "reference": "urn:uuid:b095d6a8-1767-445b-9602-430f2eae29ba",
                        "type": "Observation"
                    },
                    {
                        "display": "Genomic DNA change(gHGVS)",
                        "reference": "urn:uuid:d0fae322-bc74-4a9c-b1b0-a55230366232",
                        "type": "Observation"
                    },
                    {
                        "display": "Genomic ref allele",
                        "reference": "urn:uuid:e8c8084b-a3ec-4cca-bf64-eec3a7c134a6",
                        "type": "Observation"
                    },
                    {
                        "display": "Genomic allele start-end",
                        "reference": "urn:uuid:2d066b4c-1a17-4ae3-a9ae-d8447bb9aa3d",
                        "type": "Observation"
                    },
                    {
                        "display": "Genomic alt allele",
                        "reference": "urn:uuid:eafde597-3895-4d49-8cb9-c197d2135550",
                        "type": "Observation"
                    },
                    {
                        "display": "dbSNP ID",
                        "reference": "urn:uuid:24b30e28-c0b4-47ae-b54a-faaafdcdeff8",
                        "type": "Observation"
                    },
                    {
                        "display": "Cytogenetic (chromosome) location",
                        "reference": "urn:uuid:c4cdcdba-0d7f-43a6-9c92-b0c960b53254",
                        "type": "Observation"
                    },
                    {
                        "display": "Genomic source class",
                        "reference": "urn:uuid:04f6eec8-5765-4f6f-9aa9-19888de78896",
                        "type": "Observation"
                    },
                    {
                        "display": "Variant analysis method type",
                        "reference": "urn:uuid:464c9b4d-b078-483f-b4d8-a884caa7ca40",
                        "type": "Observation"
                    },
                    {
                        "display": "Genetic variation clinical significance",
                        "reference": "urn:uuid:3bb09cc0-c365-471b-b4e6-11bf83600975",
                        "type": "Observation"
                    },
                    {
                        "display": "Genetic variant assessment",
                        "reference": "urn:uuid:5b4bd593-4273-44ad-a118-7478a63a52b1",
                        "type": "Observation"
                    },
                    {
                        "display": "Probable associated phenotype",
                        "reference": "urn:uuid:adbbc19d-9f65-46dd-a099-1cb9a5babec9",
                        "type": "Observation"
                    },
                    {
                        "display": "Allelic state",
                        "reference": "urn:uuid:64a76326-44af-4d08-a794-b9888eb6f31b",
                        "type": "Observation"
                    }
                ],
                "status": "unknown",
                "subject": {
                    "identifier": {
                        "system": "https://fhir.nhs.uk/Id/nhs-number",
                        "type": {
                            "coding": [
                                {
                                    "code": "NH",
                                    "system": "http://terminology.hl7.org/CodeSystem/v2-0203"
                                }
                            ]
                        },
                        "value": "9737383281"
                    },
                    "reference": "urn:uuid:0b04bbf5-f900-4fc5-aa30-87e961abee50"
                }
            }
        }
    ],
    "identifier": {
        "value": "ORIE-251014-9"
    },
    "timestamp": "2025-10-14T15:59:42+00:00",
    "type": "message"
}