{
    "resourceType": "Bundle",
    "entry": [
        {
            "fullUrl": "urn:uuid:3583e2df-4162-49a9-977a-42c8f293c5d2",
            "resource": {
                "resourceType": "MessageHeader",
                "destination": [
                    {
                        "endpoint": "https//fhir.mft.nhs.uk/Endpoint/cymru.nhs.uk",
                        "receiver": {
                            "identifier": {
                                "system": "https://fhir.nhs.uk/Id/ods-organization-code",
                                "value": "NHSWales"
                            }
                        }
                    }
                ],
                "eventCoding": {
                    "code": "T02",
                    "system": "http://terminology.hl7.org/CodeSystem/v2-0003"
                },
                "focus": [
                    {
                        "reference": "urn:uuid:8dce2f9e-355f-43f8-9436-923563ba3485"
                    },
                    {
                        "reference": "urn:uuid:bba7dcbb-6d1a-4acb-b334-8464699d87ad"
                    },
                    {
                        "reference": "urn:uuid:ece747b7-79fd-4656-a070-397eb0dc4abd"
                    },
                    {
                        "reference": "urn:uuid:703b32d4-8b28-42ff-ba33-f28853c1d73d"
                    },
                    {
                        "reference": "urn:uuid:8604ac59-5649-4ff2-b324-2f00be4c1c11"
                    }
                ],
                "sender": {
                    "identifier": {
                        "system": "https://fhir.nhs.uk/Id/ods-organization-code",
                        "value": "CAV"
                    }
                },
                "source": {
                    "endpoint": "https://fhir.nwgenomics.nhs.uk/Endpoint/ACMELab",
                    "software": "NW GLH"
                }
            }
        },
        {
            "fullUrl": "urn:uuid:32145530-975e-400b-9833-17fd705a7974",
            "resource": {
                "resourceType": "Patient",
                "address": [
                    {
                        "city": "Baglan",
                        "district": "Neath port talbot",
                        "line": [
                            "A B M U Health Board",
                            "One Talbot Gateway"
                        ],
                        "postalCode": "SA12 7BR"
                    }
                ],
                "birthDate": "1999-10-13",
                "gender": "male",
                "identifier": [
                    {
                        "assigner": {
                            "identifier": {
                                "system": "https://fhir.nhs.uk/Id/ods-organization-code",
                                "value": "7A4"
                            }
                        },
                        "type": {
                            "coding": [
                                {
                                    "code": "PI",
                                    "system": "http://terminology.hl7.org/CodeSystem/v2-0203"
                                }
                            ]
                        },
                        "value": "403281375"
                    },
                    {
                        "assigner": {
                            "identifier": {
                                "system": "https://fhir.nhs.uk/Id/ods-organization-code",
                                "value": "X24"
                            }
                        },
                        "system": "https://fhir.nhs.uk/Id/nhs-number",
                        "type": {
                            "coding": [
                                {
                                    "code": "NH",
                                    "system": "http://terminology.hl7.org/CodeSystem/v2-0203"
                                }
                            ]
                        },
                        "value": "9737383257"
                    }
                ],
                "name": [
                    {
                        "family": "WREXHAM",
                        "given": [
                            "Myrcella"
                        ],
                        "prefix": [
                            "Mr"
                        ]
                    }
                ]
            }
        },
        {
            "fullUrl": "urn:uuid:f014eb7a-9e49-4b1a-ba6e-d7b791c85007",
            "resource": {
                "resourceType": "Observation",
                "code": {
                    "coding": [
                        {
                            "code": "B3553",
                            "display": "HbA1c (IFCC traceable)"
                        }
                    ]
                },
                "effectiveDateTime": "2018-03-09T15:00:00+00:00",
                "identifier": [
                    {
                        "type": {
                            "coding": [
                                {
                                    "code": "FILL",
                                    "system": "http://terminology.hl7.org/CodeSystem/v2-0203"
                                }
                            ]
                        },
                        "value": "914694928301"
                    }
                ],
                "performer": [
                    {
                        "identifier": {
                            "system": "https://fhir.nhs.uk/Id/ods-organization-code",
                            "value": "699X0"
                        },
                        "type": "Organization"
                    }
                ],
                "referenceRange": [
                    {
                        "text": "<48"
                    }
                ],
                "status": "final",
                "subject": {
                    "identifier": {
                        "assigner": {
                            "identifier": {
                                "system": "https://fhir.nhs.uk/Id/ods-organization-code",
                                "value": "X24"
                            }
                        },
                        "system": "https://fhir.nhs.uk/Id/nhs-number",
                        "type": {
                            "coding": [
                                {
                                    "code": "NH",
                                    "system": "http://terminology.hl7.org/CodeSystem/v2-0203"
                                }
                            ]
                        },
                        "value": "9737383257"
                    },
                    "reference": "urn:uuid:32145530-975e-400b-9833-17fd705a7974"
                },
                "valueQuantity": {
                    "system": "http://unitsofmeasure.org",
                    "unit": "mmol/mol",
                    "value": 49
                }
            }
        },
        {
            "fullUrl": "urn:uuid:5d582ebd-b076-484f-ba5f-7f749f6331f5",
            "resource": {
                "resourceType": "Specimen",
                "identifier": [
                    {
                        "type": {
                            "coding": [
                                {
                                    "code": "PLAC",
                                    "system": "http://terminology.hl7.org/CodeSystem/v2-0203"
                                }
                            ]
                        },
                        "value": "914694928301"
                    }
                ],
                "receivedTime": "2018-03-09T15:00:00+00:00",
                "status": "unavailable",
                "subject": {
                    "identifier": {
                        "assigner": {
                            "identifier": {
                                "system": "https://fhir.nhs.uk/Id/ods-organization-code",
                                "value": "X24"
                            }
                        },
                        "system": "https://fhir.nhs.uk/Id/nhs-number",
                        "type": {
                            "coding": [
                                {
                                    "code": "NH",
                                    "system": "http://terminology.hl7.org/CodeSystem/v2-0203"
                                }
                            ]
                        },
                        "value": "9737383257"
                    },
                    "reference": "urn:uuid:32145530-975e-400b-9833-17fd705a7974"
                }
            }
        },
        {
            "fullUrl": "urn:uuid:518f6e5c-f739-4e67-a986-db31ec5e0610",
            "resource": {
                "resourceType": "ServiceRequest",
                "category": [
                    {
                        "coding": [
                            {
                                "code": "116148004",
                                "system": "http://snomed.info/sct"
                            }
                        ]
                    }
                ],
                "code": {
                    "coding": [
                        {
                            "code": "B3051",
                            "display": "HbA1c (IFCC traceable)"
                        }
                    ]
                },
                "identifier": [
                    {
                        "type": {
                            "coding": [
                                {
                                    "code": "FILL",
                                    "system": "http://terminology.hl7.org/CodeSystem/v2-0203"
                                }
                            ]
                        },
                        "value": "914694928301"
                    }
                ],
                "intent": "order",
                "specimen": [
                    {
                        "reference": "urn:uuid:5d582ebd-b076-484f-ba5f-7f749f6331f5",
                        "type": "Specimen"
                    }
                ],
                "status": "completed",
                "subject": {
                    "identifier": {
                        "assigner": {
                            "identifier": {
                                "system": "https://fhir.nhs.uk/Id/ods-organization-code",
                                "value": "X24"
                            }
                        },
                        "system": "https://fhir.nhs.uk/Id/nhs-number",
                        "type": {
                            "coding": [
                                {
                                    "code": "NH",
                                    "system": "http://terminology.hl7.org/CodeSystem/v2-0203"
                                }
                            ]
                        },
                        "value": "9737383257"
                    },
                    "reference": "urn:uuid:32145530-975e-400b-9833-17fd705a7974"
                }
            }
        },
        {
            "fullUrl": "urn:uuid:8dce2f9e-355f-43f8-9436-923563ba3485",
            "resource": {
                "resourceType": "DiagnosticReport",
                "basedOn": [
                    {
                        "identifier": {
                            "type": {
                                "coding": [
                                    {
                                        "code": "FILL",
                                        "system": "http://terminology.hl7.org/CodeSystem/v2-0203"
                                    }
                                ]
                            },
                            "value": "914694928301"
                        },
                        "reference": "urn:uuid:518f6e5c-f739-4e67-a986-db31ec5e0610",
                        "type": "ServiceRequest"
                    }
                ],
                "category": [
                    {
                        "coding": [
                            {
                                "code": "GE",
                                "system": "http://terminology.hl7.org/CodeSystem/v2-0074"
                            }
                        ]
                    }
                ],
                "code": {
                    "coding": [
                        {
                            "code": "B3051",
                            "display": "HbA1c (IFCC traceable)"
                        }
                    ]
                },
                "effectiveDateTime": "2018-03-09T15:00:00+00:00",
                "identifier": [
                    {
                        "type": {
                            "coding": [
                                {
                                    "code": "FILL",
                                    "system": "http://terminology.hl7.org/CodeSystem/v2-0203"
                                }
                            ]
                        },
                        "value": "914694928301"
                    }
                ],
                "issued": "2018-03-09T15:00:00+00:00",
                "performer": [
                    {
                        "display": "NHS North West Genomics",
                        "identifier": {
                            "system": "https://fhir.nhs.uk/Id/ods-organization-code",
                            "value": "699X0"
                        },
                        "type": "Organization"
                    }
                ],
                "result": [
                    {
                        "display": "HbA1c (IFCC traceable)",
                        "reference": "urn:uuid:f014eb7a-9e49-4b1a-ba6e-d7b791c85007",
                        "type": "Observation"
                    }
                ],
                "specimen": [
                    {
                        "reference": "urn:uuid:5d582ebd-b076-484f-ba5f-7f749f6331f5",
                        "type": "Specimen"
                    }
                ],
                "status": "final",
                "subject": {
                    "identifier": {
                        "assigner": {
                            "identifier": {
                                "system": "https://fhir.nhs.uk/Id/ods-organization-code",
                                "value": "X24"
                            }
                        },
                        "system": "https://fhir.nhs.uk/Id/nhs-number",
                        "type": {
                            "coding": [
                                {
                                    "code": "NH",
                                    "system": "http://terminology.hl7.org/CodeSystem/v2-0203"
                                }
                            ]
                        },
                        "value": "9737383257"
                    },
                    "reference": "urn:uuid:32145530-975e-400b-9833-17fd705a7974"
                }
            }
        },
        {
            "fullUrl": "urn:uuid:fc418773-47e6-49ba-85e6-466c9b9061ae",
            "resource": {
                "resourceType": "Observation",
                "code": {
                    "coding": [
                        {
                            "code": "B0300",
                            "display": "White blood cell (WBC) count"
                        }
                    ]
                },
                "effectiveDateTime": "2018-03-09T15:00:00+00:00",
                "identifier": [
                    {
                        "type": {
                            "coding": [
                                {
                                    "code": "FILL",
                                    "system": "http://terminology.hl7.org/CodeSystem/v2-0203"
                                }
                            ]
                        },
                        "value": "914694928301"
                    }
                ],
                "performer": [
                    {
                        "identifier": {
                            "system": "https://fhir.nhs.uk/Id/ods-organization-code",
                            "value": "699X0"
                        },
                        "type": "Organization"
                    }
                ],
                "referenceRange": [
                    {
                        "text": "4.0-11.0"
                    }
                ],
                "status": "final",
                "subject": {
                    "identifier": {
                        "assigner": {
                            "identifier": {
                                "system": "https://fhir.nhs.uk/Id/ods-organization-code",
                                "value": "X24"
                            }
                        },
                        "system": "https://fhir.nhs.uk/Id/nhs-number",
                        "type": {
                            "coding": [
                                {
                                    "code": "NH",
                                    "system": "http://terminology.hl7.org/CodeSystem/v2-0203"
                                }
                            ]
                        },
                        "value": "9737383257"
                    },
                    "reference": "urn:uuid:32145530-975e-400b-9833-17fd705a7974"
                },
                "valueQuantity": {
                    "system": "http://unitsofmeasure.org",
                    "unit": "x10\\S\\9/L",
                    "value": 3.5
                }
            }
        },
        {
            "fullUrl": "urn:uuid:299c95b4-3ca5-4304-aeea-20a098984198",
            "resource": {
                "resourceType": "Observation",
                "code": {
                    "coding": [
                        {
                            "code": "B0307",
                            "display": "Haemoglobin (Hb)"
                        }
                    ]
                },
                "effectiveDateTime": "2018-03-09T15:00:00+00:00",
                "identifier": [
                    {
                        "type": {
                            "coding": [
                                {
                                    "code": "FILL",
                                    "system": "http://terminology.hl7.org/CodeSystem/v2-0203"
                                }
                            ]
                        },
                        "value": "914694928301"
                    }
                ],
                "performer": [
                    {
                        "identifier": {
                            "system": "https://fhir.nhs.uk/Id/ods-organization-code",
                            "value": "699X0"
                        },
                        "type": "Organization"
                    }
                ],
                "referenceRange": [
                    {
                        "text": "130-180"
                    }
                ],
                "status": "final",
                "subject": {
                    "identifier": {
                        "assigner": {
                            "identifier": {
                                "system": "https://fhir.nhs.uk/Id/ods-organization-code",
                                "value": "X24"
                            }
                        },
                        "system": "https://fhir.nhs.uk/Id/nhs-number",
                        "type": {
                            "coding": [
                                {
                                    "code": "NH",
                                    "system": "http://terminology.hl7.org/CodeSystem/v2-0203"
                                }
                            ]
                        },
                        "value": "9737383257"
                    },
                    "reference": "urn:uuid:32145530-975e-400b-9833-17fd705a7974"
                },
                "valueQuantity": {
                    "comparator": "<",
                    "system": "http://unitsofmeasure.org",
                    "unit": "g/L",
                    "value": 149
                }
            }
        },
        {
            "fullUrl": "urn:uuid:dfd1de24-a29f-4820-92e6-b49c2aed5214",
            "resource": {
                "resourceType": "Observation",
                "code": {
                    "coding": [
                        {
                            "code": "B0314",
                            "display": "Platelet (PLT) count"
                        }
                    ]
                },
                "effectiveDateTime": "2018-03-09T15:00:00+00:00",
                "identifier": [
                    {
                        "type": {
                            "coding": [
                                {
                                    "code": "FILL",
                                    "system": "http://terminology.hl7.org/CodeSystem/v2-0203"
                                }
                            ]
                        },
                        "value": "914694928301"
                    }
                ],
                "performer": [
                    {
                        "identifier": {
                            "system": "https://fhir.nhs.uk/Id/ods-organization-code",
                            "value": "699X0"
                        },
                        "type": "Organization"
                    }
                ],
                "referenceRange": [
                    {
                        "text": "150-400"
                    }
                ],
                "status": "final",
                "subject": {
                    "identifier": {
                        "assigner": {
                            "identifier": {
                                "system": "https://fhir.nhs.uk/Id/ods-organization-code",
                                "value": "X24"
                            }
                        },
                        "system": "https://fhir.nhs.uk/Id/nhs-number",
                        "type": {
                            "coding": [
                                {
                                    "code": "NH",
                                    "system": "http://terminology.hl7.org/CodeSystem/v2-0203"
                                }
                            ]
                        },
                        "value": "9737383257"
                    },
                    "reference": "urn:uuid:32145530-975e-400b-9833-17fd705a7974"
                },
                "valueQuantity": {
                    "system": "http://unitsofmeasure.org",
                    "unit": "x10\\S\\9/L",
                    "value": 500
                }
            }
        },
        {
            "fullUrl": "urn:uuid:551bce68-f99e-4acf-843d-e59b1440be43",
            "resource": {
                "resourceType": "Observation",
                "code": {
                    "coding": [
                        {
                            "code": "B0306",
                            "display": "Red blood cell (RBC) count"
                        }
                    ]
                },
                "effectiveDateTime": "2018-03-09T15:00:00+00:00",
                "identifier": [
                    {
                        "type": {
                            "coding": [
                                {
                                    "code": "FILL",
                                    "system": "http://terminology.hl7.org/CodeSystem/v2-0203"
                                }
                            ]
                        },
                        "value": "914694928301"
                    }
                ],
                "performer": [
                    {
                        "identifier": {
                            "system": "https://fhir.nhs.uk/Id/ods-organization-code",
                            "value": "699X0"
                        },
                        "type": "Organization"
                    }
                ],
                "referenceRange": [
                    {
                        "text": "4.50-6.00"
                    }
                ],
                "status": "final",
                "subject": {
                    "identifier": {
                        "assigner": {
                            "identifier": {
                                "system": "https://fhir.nhs.uk/Id/ods-organization-code",
                                "value": "X24"
                            }
                        },
                        "system": "https://fhir.nhs.uk/Id/nhs-number",
                        "type": {
                            "coding": [
                                {
                                    "code": "NH",
                                    "system": "http://terminology.hl7.org/CodeSystem/v2-0203"
                                }
                            ]
                        },
                        "value": "9737383257"
                    },
                    "reference": "urn:uuid:32145530-975e-400b-9833-17fd705a7974"
                },
                "valueQuantity": {
                    "system": "http://unitsofmeasure.org",
                    "unit": "x10\\S\\12/L",
                    "value": 6.0
                }
            }
        },
        {
            "fullUrl": "urn:uuid:98f1f344-e178-4212-8257-bb1c8f65a445",
            "resource": {
                "resourceType": "Observation",
                "code": {
                    "coding": [
                        {
                            "code": "B0309",
                            "display": "Mean cell volume (MCV)"
                        }
                    ]
                },
                "effectiveDateTime": "2018-03-09T15:00:00+00:00",
                "identifier": [
                    {
                        "type": {
                            "coding": [
                                {
                                    "code": "FILL",
                                    "system": "http://terminology.hl7.org/CodeSystem/v2-0203"
                                }
                            ]
                        },
                        "value": "914694928301"
                    }
                ],
                "performer": [
                    {
                        "identifier": {
                            "system": "https://fhir.nhs.uk/Id/ods-organization-code",
                            "value": "699X0"
                        },
                        "type": "Organization"
                    }
                ],
                "referenceRange": [
                    {
                        "text": "80-100"
                    }
                ],
                "status": "final",
                "subject": {
                    "identifier": {
                        "assigner": {
                            "identifier": {
                                "system": "https://fhir.nhs.uk/Id/ods-organization-code",
                                "value": "X24"
                            }
                        },
                        "system": "https://fhir.nhs.uk/Id/nhs-number",
                        "type": {
                            "coding": [
                                {
                                    "code": "NH",
                                    "system": "http://terminology.hl7.org/CodeSystem/v2-0203"
                                }
                            ]
                        },
                        "value": "9737383257"
                    },
                    "reference": "urn:uuid:32145530-975e-400b-9833-17fd705a7974"
                },
                "valueCodeableConcept": {
                    "coding": [
                        {
                            "code": "NA",
                            "display": "Not assayed",
                            "system": "ACME"
                        }
                    ]
                }
            }
        },
        {
            "fullUrl": "urn:uuid:0e3c4c31-1c32-46e0-a530-33ad39bc71e4",
            "resource": {
                "resourceType": "Specimen",
                "collection": {
                    "collectedDateTime": "2018-03-09T14:00:00+00:00"
                },
                "identifier": [
                    {
                        "type": {
                            "coding": [
                                {
                                    "code": "FILL",
                                    "system": "http://terminology.hl7.org/CodeSystem/v2-0203"
                                }
                            ]
                        },
                        "value": "9146949283"
                    }
                ],
                "receivedTime": "2018-03-09T15:00:00+00:00",
                "status": "unavailable",
                "subject": {
                    "identifier": {
                        "assigner": {
                            "identifier": {
                                "system": "https://fhir.nhs.uk/Id/ods-organization-code",
                                "value": "X24"
                            }
                        },
                        "system": "https://fhir.nhs.uk/Id/nhs-number",
                        "type": {
                            "coding": [
                                {
                                    "code": "NH",
                                    "system": "http://terminology.hl7.org/CodeSystem/v2-0203"
                                }
                            ]
                        },
                        "value": "9737383257"
                    },
                    "reference": "urn:uuid:32145530-975e-400b-9833-17fd705a7974"
                },
                "type": {
                    "coding": [
                        {
                            "code": "BLOO",
                            "display": "Blood",
                            "system": "ACME"
                        }
                    ]
                }
            }
        },
        {
            "fullUrl": "urn:uuid:bba7dcbb-6d1a-4acb-b334-8464699d87ad",
            "resource": {
                "resourceType": "DiagnosticReport",
                "category": [
                    {
                        "coding": [
                            {
                                "code": "GE",
                                "system": "http://terminology.hl7.org/CodeSystem/v2-0074"
                            }
                        ]
                    }
                ],
                "code": {
                    "coding": [
                        {
                            "code": "B0001",
                            "display": "Full blood count"
                        }
                    ]
                },
                "effectiveDateTime": "2018-03-09T15:00:00+00:00",
                "identifier": [
                    {
                        "type": {
                            "coding": [
                                {
                                    "code": "FILL",
                                    "system": "http://terminology.hl7.org/CodeSystem/v2-0203"
                                }
                            ]
                        },
                        "value": "914694928301"
                    }
                ],
                "issued": "2018-03-09T15:00:00+00:00",
                "performer": [
                    {
                        "display": "NHS North West Genomics",
                        "identifier": {
                            "system": "https://fhir.nhs.uk/Id/ods-organization-code",
                            "value": "699X0"
                        },
                        "type": "Organization"
                    }
                ],
                "result": [
                    {
                        "display": "White blood cell (WBC) count",
                        "reference": "urn:uuid:fc418773-47e6-49ba-85e6-466c9b9061ae",
                        "type": "Observation"
                    },
                    {
                        "display": "Haemoglobin (Hb)",
                        "reference": "urn:uuid:299c95b4-3ca5-4304-aeea-20a098984198",
                        "type": "Observation"
                    },
                    {
                        "display": "Platelet (PLT) count",
                        "reference": "urn:uuid:dfd1de24-a29f-4820-92e6-b49c2aed5214",
                        "type": "Observation"
                    },
                    {
                        "display": "Red blood cell (RBC) count",
                        "reference": "urn:uuid:551bce68-f99e-4acf-843d-e59b1440be43",
                        "type": "Observation"
                    },
                    {
                        "display": "Mean cell volume (MCV)",
                        "reference": "urn:uuid:98f1f344-e178-4212-8257-bb1c8f65a445",
                        "type": "Observation"
                    }
                ],
                "specimen": [
                    {
                        "reference": "urn:uuid:0e3c4c31-1c32-46e0-a530-33ad39bc71e4",
                        "type": "Specimen"
                    }
                ],
                "status": "final",
                "subject": {
                    "identifier": {
                        "assigner": {
                            "identifier": {
                                "system": "https://fhir.nhs.uk/Id/ods-organization-code",
                                "value": "X24"
                            }
                        },
                        "system": "https://fhir.nhs.uk/Id/nhs-number",
                        "type": {
                            "coding": [
                                {
                                    "code": "NH",
                                    "system": "http://terminology.hl7.org/CodeSystem/v2-0203"
                                }
                            ]
                        },
                        "value": "9737383257"
                    },
                    "reference": "urn:uuid:32145530-975e-400b-9833-17fd705a7974"
                }
            }
        },
        {
            "fullUrl": "urn:uuid:afdf6a43-bf8e-4dba-a09c-3d6b0bf14c37",
            "resource": {
                "resourceType": "Binary",
                "contentType": "application/pdf",
                "data": "JVBERi0xLjQKJcOkw7zDtsOfCjIgMCBvYmoKPDw...EyNDk0IDAwMDAwIG4gCnRyYWlsZXIKPDwvU2l6ZS"
            }
        },
        {
            "fullUrl": "urn:uuid:3ab7dc4d-efa9-4b58-8b7a-17b12c70d3de",
            "resource": {
                "resourceType": "DocumentReference",
                "content": [
                    {
                        "attachment": {
                            "contentType": "application/pdf",
                            "url": "urn:uuid:afdf6a43-bf8e-4dba-a09c-3d6b0bf14c37"
                        }
                    }
                ],
                "context": {
                    "period": {
                        "end": "2018-11-09T12:38:51+00:00",
                        "start": "2018-11-09T12:38:51+00:00"
                    },
                    "related": [
                        {
                            "identifier": {
                                "assigner": {
                                    "identifier": {
                                        "system": "https://fhir.nhs.uk/Id/ods-organization-code",
                                        "value": "7A4BV"
                                    }
                                },
                                "type": {
                                    "coding": [
                                        {
                                            "code": "FILL",
                                            "system": "http://terminology.hl7.org/CodeSystem/v2-0203"
                                        }
                                    ]
                                },
                                "value": "287018"
                            },
                            "reference": "urn:uuid:ece747b7-79fd-4656-a070-397eb0dc4abd",
                            "type": "DiagnosticReport"
                        }
                    ]
                },
                "custodian": {
                    "identifier": {
                        "system": "https://fhir.nhs.uk/Id/ods-organization-code",
                        "value": "699X0"
                    },
                    "type": "Organization"
                },
                "date": "2018-11-09T12:38:51+00:00",
                "identifier": [
                    {
                        "assigner": {
                            "identifier": {
                                "system": "https://fhir.nhs.uk/Id/ods-organization-code",
                                "value": "7A4BV"
                            }
                        },
                        "type": {
                            "coding": [
                                {
                                    "code": "FILL",
                                    "system": "http://terminology.hl7.org/CodeSystem/v2-0203"
                                }
                            ]
                        },
                        "value": "287018"
                    }
                ],
                "status": "current",
                "subject": {
                    "identifier": {
                        "assigner": {
                            "identifier": {
                                "system": "https://fhir.nhs.uk/Id/ods-organization-code",
                                "value": "X24"
                            }
                        },
                        "system": "https://fhir.nhs.uk/Id/nhs-number",
                        "type": {
                            "coding": [
                                {
                                    "code": "NH",
                                    "system": "http://terminology.hl7.org/CodeSystem/v2-0203"
                                }
                            ]
                        },
                        "value": "9737383257"
                    },
                    "reference": "urn:uuid:32145530-975e-400b-9833-17fd705a7974"
                },
                "type": {
                    "coding": [
                        {
                            "code": "CATH",
                            "display": "Cardiac Catheter Report",
                            "system": "L"
                        }
                    ]
                }
            }
        },
        {
            "fullUrl": "urn:uuid:2d0261c2-2258-4593-b149-984270d2e55b",
            "resource": {
                "resourceType": "Binary",
                "contentType": "application/pdf",
                "data": "AxNi9Sb290IDE0IDAgUgovSW5mbyAxNSAwIFIKL0lEIFsgPE...KPj4Kc3RhcnR4cmVmCjEyNzg3CiUlRU9GCg=="
            }
        },
        {
            "fullUrl": "urn:uuid:de403376-ce05-463e-9bf6-ab296118292c",
            "resource": {
                "resourceType": "DocumentReference",
                "content": [
                    {
                        "attachment": {
                            "contentType": "application/pdf",
                            "url": "urn:uuid:2d0261c2-2258-4593-b149-984270d2e55b"
                        }
                    }
                ],
                "context": {
                    "period": {
                        "end": "2018-11-09T12:38:51+00:00",
                        "start": "2018-11-09T12:38:51+00:00"
                    },
                    "related": [
                        {
                            "identifier": {
                                "assigner": {
                                    "identifier": {
                                        "system": "https://fhir.nhs.uk/Id/ods-organization-code",
                                        "value": "7A4BV"
                                    }
                                },
                                "type": {
                                    "coding": [
                                        {
                                            "code": "FILL",
                                            "system": "http://terminology.hl7.org/CodeSystem/v2-0203"
                                        }
                                    ]
                                },
                                "value": "287018"
                            },
                            "reference": "urn:uuid:ece747b7-79fd-4656-a070-397eb0dc4abd",
                            "type": "DiagnosticReport"
                        }
                    ]
                },
                "custodian": {
                    "identifier": {
                        "system": "https://fhir.nhs.uk/Id/ods-organization-code",
                        "value": "699X0"
                    },
                    "type": "Organization"
                },
                "date": "2018-11-09T12:38:51+00:00",
                "identifier": [
                    {
                        "assigner": {
                            "identifier": {
                                "system": "https://fhir.nhs.uk/Id/ods-organization-code",
                                "value": "7A4BV"
                            }
                        },
                        "type": {
                            "coding": [
                                {
                                    "code": "FILL",
                                    "system": "http://terminology.hl7.org/CodeSystem/v2-0203"
                                }
                            ]
                        },
                        "value": "287018"
                    }
                ],
                "status": "current",
                "subject": {
                    "identifier": {
                        "assigner": {
                            "identifier": {
                                "system": "https://fhir.nhs.uk/Id/ods-organization-code",
                                "value": "X24"
                            }
                        },
                        "system": "https://fhir.nhs.uk/Id/nhs-number",
                        "type": {
                            "coding": [
                                {
                                    "code": "NH",
                                    "system": "http://terminology.hl7.org/CodeSystem/v2-0203"
                                }
                            ]
                        },
                        "value": "9737383257"
                    },
                    "reference": "urn:uuid:32145530-975e-400b-9833-17fd705a7974"
                },
                "type": {
                    "coding": [
                        {
                            "code": "CATH",
                            "display": "Cardiac Catheter Report",
                            "system": "L"
                        }
                    ]
                }
            }
        },
        {
            "fullUrl": "urn:uuid:ece747b7-79fd-4656-a070-397eb0dc4abd",
            "resource": {
                "resourceType": "DiagnosticReport",
                "category": [
                    {
                        "coding": [
                            {
                                "code": "GE",
                                "system": "http://terminology.hl7.org/CodeSystem/v2-0074"
                            }
                        ]
                    }
                ],
                "code": {
                    "coding": [
                        {
                            "code": "CATH",
                            "display": "Cardiac Catheter Report",
                            "system": "L"
                        }
                    ]
                },
                "effectiveDateTime": "2018-11-09T12:38:51+00:00",
                "identifier": [
                    {
                        "assigner": {
                            "identifier": {
                                "system": "https://fhir.nhs.uk/Id/ods-organization-code",
                                "value": "7A4BV"
                            }
                        },
                        "type": {
                            "coding": [
                                {
                                    "code": "FILL",
                                    "system": "http://terminology.hl7.org/CodeSystem/v2-0203"
                                }
                            ]
                        },
                        "value": "287018"
                    }
                ],
                "issued": "2018-11-09T12:48:18+00:00",
                "performer": [
                    {
                        "display": "NHS North West Genomics",
                        "identifier": {
                            "system": "https://fhir.nhs.uk/Id/ods-organization-code",
                            "value": "699X0"
                        },
                        "type": "Organization"
                    }
                ],
                "status": "partial",
                "subject": {
                    "identifier": {
                        "assigner": {
                            "identifier": {
                                "system": "https://fhir.nhs.uk/Id/ods-organization-code",
                                "value": "X24"
                            }
                        },
                        "system": "https://fhir.nhs.uk/Id/nhs-number",
                        "type": {
                            "coding": [
                                {
                                    "code": "NH",
                                    "system": "http://terminology.hl7.org/CodeSystem/v2-0203"
                                }
                            ]
                        },
                        "value": "9737383257"
                    },
                    "reference": "urn:uuid:32145530-975e-400b-9833-17fd705a7974"
                }
            }
        },
        {
            "fullUrl": "urn:uuid:a23a107b-342b-4e0f-86f8-632853ae596a",
            "resource": {
                "resourceType": "Binary",
                "contentType": "application/pdf",
                "data": "JVBERi0xLjQKJcOkw7zDtsOfCjIgMCBvYm...VmCjEyNzg3CiUlRU9GCg=="
            }
        },
        {
            "fullUrl": "urn:uuid:14006cb5-1e77-4f5c-b6ec-1d207b25b9a1",
            "resource": {
                "resourceType": "DocumentReference",
                "content": [
                    {
                        "attachment": {
                            "contentType": "application/pdf",
                            "url": "urn:uuid:a23a107b-342b-4e0f-86f8-632853ae596a"
                        }
                    }
                ],
                "context": {
                    "period": {
                        "end": "2018-11-09T12:38:51+00:00",
                        "start": "2018-11-09T12:38:51+00:00"
                    },
                    "related": [
                        {
                            "identifier": {
                                "assigner": {
                                    "identifier": {
                                        "system": "https://fhir.nhs.uk/Id/ods-organization-code",
                                        "value": "7A4BV"
                                    }
                                },
                                "type": {
                                    "coding": [
                                        {
                                            "code": "FILL",
                                            "system": "http://terminology.hl7.org/CodeSystem/v2-0203"
                                        }
                                    ]
                                },
                                "value": "A28701"
                            },
                            "reference": "urn:uuid:703b32d4-8b28-42ff-ba33-f28853c1d73d",
                            "type": "DiagnosticReport"
                        }
                    ]
                },
                "custodian": {
                    "identifier": {
                        "system": "https://fhir.nhs.uk/Id/ods-organization-code",
                        "value": "699X0"
                    },
                    "type": "Organization"
                },
                "date": "2018-11-09T12:38:51+00:00",
                "identifier": [
                    {
                        "assigner": {
                            "identifier": {
                                "system": "https://fhir.nhs.uk/Id/ods-organization-code",
                                "value": "7A4BV"
                            }
                        },
                        "type": {
                            "coding": [
                                {
                                    "code": "FILL",
                                    "system": "http://terminology.hl7.org/CodeSystem/v2-0203"
                                }
                            ]
                        },
                        "value": "A28701"
                    }
                ],
                "status": "current",
                "subject": {
                    "identifier": {
                        "assigner": {
                            "identifier": {
                                "system": "https://fhir.nhs.uk/Id/ods-organization-code",
                                "value": "X24"
                            }
                        },
                        "system": "https://fhir.nhs.uk/Id/nhs-number",
                        "type": {
                            "coding": [
                                {
                                    "code": "NH",
                                    "system": "http://terminology.hl7.org/CodeSystem/v2-0203"
                                }
                            ]
                        },
                        "value": "9737383257"
                    },
                    "reference": "urn:uuid:32145530-975e-400b-9833-17fd705a7974"
                },
                "type": {
                    "coding": [
                        {
                            "code": "Appointment",
                            "display": "Appointment Letter",
                            "system": "L"
                        }
                    ]
                }
            }
        },
        {
            "fullUrl": "urn:uuid:703b32d4-8b28-42ff-ba33-f28853c1d73d",
            "resource": {
                "resourceType": "DiagnosticReport",
                "category": [
                    {
                        "coding": [
                            {
                                "code": "GE",
                                "system": "http://terminology.hl7.org/CodeSystem/v2-0074"
                            }
                        ]
                    }
                ],
                "code": {
                    "coding": [
                        {
                            "code": "Appointment",
                            "display": "AppointmentLetter",
                            "system": "L"
                        }
                    ]
                },
                "effectiveDateTime": "2018-11-09T12:38:51+00:00",
                "identifier": [
                    {
                        "assigner": {
                            "identifier": {
                                "system": "https://fhir.nhs.uk/Id/ods-organization-code",
                                "value": "7A4BV"
                            }
                        },
                        "type": {
                            "coding": [
                                {
                                    "code": "FILL",
                                    "system": "http://terminology.hl7.org/CodeSystem/v2-0203"
                                }
                            ]
                        },
                        "value": "A28701"
                    }
                ],
                "issued": "2018-11-09T12:48:18+00:00",
                "performer": [
                    {
                        "display": "NHS North West Genomics",
                        "identifier": {
                            "system": "https://fhir.nhs.uk/Id/ods-organization-code",
                            "value": "699X0"
                        },
                        "type": "Organization"
                    }
                ],
                "status": "partial",
                "subject": {
                    "identifier": {
                        "assigner": {
                            "identifier": {
                                "system": "https://fhir.nhs.uk/Id/ods-organization-code",
                                "value": "X24"
                            }
                        },
                        "system": "https://fhir.nhs.uk/Id/nhs-number",
                        "type": {
                            "coding": [
                                {
                                    "code": "NH",
                                    "system": "http://terminology.hl7.org/CodeSystem/v2-0203"
                                }
                            ]
                        },
                        "value": "9737383257"
                    },
                    "reference": "urn:uuid:32145530-975e-400b-9833-17fd705a7974"
                }
            }
        },
        {
            "fullUrl": "urn:uuid:2ea410d7-be0e-4e61-b0b1-1d11b48a08ef",
            "resource": {
                "resourceType": "Observation",
                "code": {
                    "coding": [
                        {
                            "code": "INTER",
                            "display": "INTERPRETATION",
                            "system": "L"
                        }
                    ]
                },
                "effectiveDateTime": "2019-05-14T10:24:17+00:00",
                "identifier": [
                    {
                        "type": {
                            "coding": [
                                {
                                    "code": "FILL",
                                    "system": "http://terminology.hl7.org/CodeSystem/v2-0203"
                                }
                            ]
                        },
                        "value": "190000041:27491"
                    }
                ],
                "note": [
                    {
                        "text": "Interpreted by: ACME Super User, Signed on 05/14/2019 at 10:24\\n"
                    }
                ],
                "performer": [
                    {
                        "identifier": {
                            "system": "https://fhir.nhs.uk/Id/ods-organization-code",
                            "value": "699X0"
                        },
                        "type": "Organization"
                    }
                ],
                "status": "final",
                "subject": {
                    "identifier": {
                        "assigner": {
                            "identifier": {
                                "system": "https://fhir.nhs.uk/Id/ods-organization-code",
                                "value": "X24"
                            }
                        },
                        "system": "https://fhir.nhs.uk/Id/nhs-number",
                        "type": {
                            "coding": [
                                {
                                    "code": "NH",
                                    "system": "http://terminology.hl7.org/CodeSystem/v2-0203"
                                }
                            ]
                        },
                        "value": "9737383257"
                    },
                    "reference": "urn:uuid:32145530-975e-400b-9833-17fd705a7974"
                },
                "valueString": "rwtu"
            }
        },
        {
            "fullUrl": "urn:uuid:2f1ecd02-f285-443d-a090-6ee8a7b4da6e",
            "resource": {
                "resourceType": "Observation",
                "code": {
                    "coding": [
                        {
                            "code": "RESTE",
                            "display": "Reason for testing",
                            "system": "L"
                        }
                    ]
                },
                "effectiveDateTime": "2019-05-14T10:24:17+00:00",
                "identifier": [
                    {
                        "type": {
                            "coding": [
                                {
                                    "code": "FILL",
                                    "system": "http://terminology.hl7.org/CodeSystem/v2-0203"
                                }
                            ]
                        },
                        "value": "190000041:27491"
                    }
                ],
                "performer": [
                    {
                        "identifier": {
                            "system": "https://fhir.nhs.uk/Id/ods-organization-code",
                            "value": "699X0"
                        },
                        "type": "Organization"
                    }
                ],
                "status": "final",
                "subject": {
                    "identifier": {
                        "assigner": {
                            "identifier": {
                                "system": "https://fhir.nhs.uk/Id/ods-organization-code",
                                "value": "X24"
                            }
                        },
                        "system": "https://fhir.nhs.uk/Id/nhs-number",
                        "type": {
                            "coding": [
                                {
                                    "code": "NH",
                                    "system": "http://terminology.hl7.org/CodeSystem/v2-0203"
                                }
                            ]
                        },
                        "value": "9737383257"
                    },
                    "reference": "urn:uuid:32145530-975e-400b-9833-17fd705a7974"
                },
                "valueString": "erw"
            }
        },
        {
            "fullUrl": "urn:uuid:84055d60-7348-4131-be95-2790ce890bbb",
            "resource": {
                "resourceType": "Observation",
                "code": {
                    "coding": [
                        {
                            "code": "TMETH",
                            "display": "Test Methodology",
                            "system": "L"
                        }
                    ]
                },
                "effectiveDateTime": "2019-05-14T10:24:17+00:00",
                "identifier": [
                    {
                        "type": {
                            "coding": [
                                {
                                    "code": "FILL",
                                    "system": "http://terminology.hl7.org/CodeSystem/v2-0203"
                                }
                            ]
                        },
                        "value": "190000041:27491"
                    }
                ],
                "performer": [
                    {
                        "identifier": {
                            "system": "https://fhir.nhs.uk/Id/ods-organization-code",
                            "value": "699X0"
                        },
                        "type": "Organization"
                    }
                ],
                "status": "final",
                "subject": {
                    "identifier": {
                        "assigner": {
                            "identifier": {
                                "system": "https://fhir.nhs.uk/Id/ods-organization-code",
                                "value": "X24"
                            }
                        },
                        "system": "https://fhir.nhs.uk/Id/nhs-number",
                        "type": {
                            "coding": [
                                {
                                    "code": "NH",
                                    "system": "http://terminology.hl7.org/CodeSystem/v2-0203"
                                }
                            ]
                        },
                        "value": "9737383257"
                    },
                    "reference": "urn:uuid:32145530-975e-400b-9833-17fd705a7974"
                },
                "valueString": "sfjg"
            }
        },
        {
            "fullUrl": "urn:uuid:e0093d98-dd25-4e73-90cb-ec315449da11",
            "resource": {
                "resourceType": "Observation",
                "code": {
                    "coding": [
                        {
                            "code": "RESUM",
                            "display": "Result summary",
                            "system": "L"
                        }
                    ]
                },
                "effectiveDateTime": "2019-05-14T10:24:17+00:00",
                "identifier": [
                    {
                        "type": {
                            "coding": [
                                {
                                    "code": "FILL",
                                    "system": "http://terminology.hl7.org/CodeSystem/v2-0203"
                                }
                            ]
                        },
                        "value": "190000041:27491"
                    }
                ],
                "performer": [
                    {
                        "identifier": {
                            "system": "https://fhir.nhs.uk/Id/ods-organization-code",
                            "value": "699X0"
                        },
                        "type": "Organization"
                    }
                ],
                "status": "final",
                "subject": {
                    "identifier": {
                        "assigner": {
                            "identifier": {
                                "system": "https://fhir.nhs.uk/Id/ods-organization-code",
                                "value": "X24"
                            }
                        },
                        "system": "https://fhir.nhs.uk/Id/nhs-number",
                        "type": {
                            "coding": [
                                {
                                    "code": "NH",
                                    "system": "http://terminology.hl7.org/CodeSystem/v2-0203"
                                }
                            ]
                        },
                        "value": "9737383257"
                    },
                    "reference": "urn:uuid:32145530-975e-400b-9833-17fd705a7974"
                },
                "valueString": "tyityu"
            }
        },
        {
            "fullUrl": "urn:uuid:8013d95f-916e-4560-aef3-e8ae6521e801",
            "resource": {
                "resourceType": "Observation",
                "code": {
                    "coding": [
                        {
                            "code": "PATPH",
                            "display": "Patient phenotype",
                            "system": "L"
                        }
                    ]
                },
                "effectiveDateTime": "2019-05-14T10:24:17+00:00",
                "identifier": [
                    {
                        "type": {
                            "coding": [
                                {
                                    "code": "FILL",
                                    "system": "http://terminology.hl7.org/CodeSystem/v2-0203"
                                }
                            ]
                        },
                        "value": "190000041:27491"
                    }
                ],
                "performer": [
                    {
                        "identifier": {
                            "system": "https://fhir.nhs.uk/Id/ods-organization-code",
                            "value": "699X0"
                        },
                        "type": "Organization"
                    }
                ],
                "status": "final",
                "subject": {
                    "identifier": {
                        "assigner": {
                            "identifier": {
                                "system": "https://fhir.nhs.uk/Id/ods-organization-code",
                                "value": "X24"
                            }
                        },
                        "system": "https://fhir.nhs.uk/Id/nhs-number",
                        "type": {
                            "coding": [
                                {
                                    "code": "NH",
                                    "system": "http://terminology.hl7.org/CodeSystem/v2-0203"
                                }
                            ]
                        },
                        "value": "9737383257"
                    },
                    "reference": "urn:uuid:32145530-975e-400b-9833-17fd705a7974"
                },
                "valueString": "ghfjg"
            }
        },
        {
            "fullUrl": "urn:uuid:e766159e-8fe3-4a9d-b159-89ffacded100",
            "resource": {
                "resourceType": "Observation",
                "code": {
                    "coding": [
                        {
                            "code": "FOLL",
                            "display": "Follow-up",
                            "system": "L"
                        }
                    ]
                },
                "effectiveDateTime": "2019-05-14T10:24:17+00:00",
                "identifier": [
                    {
                        "type": {
                            "coding": [
                                {
                                    "code": "FILL",
                                    "system": "http://terminology.hl7.org/CodeSystem/v2-0203"
                                }
                            ]
                        },
                        "value": "190000041:27491"
                    }
                ],
                "performer": [
                    {
                        "identifier": {
                            "system": "https://fhir.nhs.uk/Id/ods-organization-code",
                            "value": "699X0"
                        },
                        "type": "Organization"
                    }
                ],
                "status": "final",
                "subject": {
                    "identifier": {
                        "assigner": {
                            "identifier": {
                                "system": "https://fhir.nhs.uk/Id/ods-organization-code",
                                "value": "X24"
                            }
                        },
                        "system": "https://fhir.nhs.uk/Id/nhs-number",
                        "type": {
                            "coding": [
                                {
                                    "code": "NH",
                                    "system": "http://terminology.hl7.org/CodeSystem/v2-0203"
                                }
                            ]
                        },
                        "value": "9737383257"
                    },
                    "reference": "urn:uuid:32145530-975e-400b-9833-17fd705a7974"
                },
                "valueString": "yue"
            }
        },
        {
            "fullUrl": "urn:uuid:ea116e53-28bb-453e-984c-468d5bbe9a41",
            "resource": {
                "resourceType": "Binary",
                "contentType": "application/pdf",
                "data": ""
            }
        },
        {
            "fullUrl": "urn:uuid:0e841954-41d7-4922-9fbf-30c3d986368c",
            "resource": {
                "resourceType": "DocumentReference",
                "content": [
                    {
                        "attachment": {
                            "contentType": "application/pdf",
                            "url": "urn:uuid:ea116e53-28bb-453e-984c-468d5bbe9a41"
                        }
                    }
                ],
                "context": {
                    "period": {
                        "end": "2019-05-14T10:24:17+00:00",
                        "start": "2019-05-14T10:24:17+00:00"
                    },
                    "related": [
                        {
                            "identifier": {
                                "type": {
                                    "coding": [
                                        {
                                            "code": "FILL",
                                            "system": "http://terminology.hl7.org/CodeSystem/v2-0203"
                                        }
                                    ]
                                },
                                "value": "190000041:27491"
                            },
                            "reference": "urn:uuid:8604ac59-5649-4ff2-b324-2f00be4c1c11",
                            "type": "DiagnosticReport"
                        }
                    ]
                },
                "custodian": {
                    "identifier": {
                        "system": "https://fhir.nhs.uk/Id/ods-organization-code",
                        "value": "699X0"
                    },
                    "type": "Organization"
                },
                "date": "2019-05-14T10:24:17+00:00",
                "identifier": [
                    {
                        "type": {
                            "coding": [
                                {
                                    "code": "FILL",
                                    "system": "http://terminology.hl7.org/CodeSystem/v2-0203"
                                }
                            ]
                        },
                        "value": "190000041:27491"
                    }
                ],
                "status": "current",
                "subject": {
                    "identifier": {
                        "assigner": {
                            "identifier": {
                                "system": "https://fhir.nhs.uk/Id/ods-organization-code",
                                "value": "X24"
                            }
                        },
                        "system": "https://fhir.nhs.uk/Id/nhs-number",
                        "type": {
                            "coding": [
                                {
                                    "code": "NH",
                                    "system": "http://terminology.hl7.org/CodeSystem/v2-0203"
                                }
                            ]
                        },
                        "value": "9737383257"
                    },
                    "reference": "urn:uuid:32145530-975e-400b-9833-17fd705a7974"
                },
                "type": {
                    "coding": [
                        {
                            "code": "823781000000108",
                            "display": "MDT (multidisciplinary team) letter",
                            "system": "http://snomed.info/sct"
                        }
                    ]
                }
            }
        },
        {
            "fullUrl": "urn:uuid:32961285-3290-411f-ac54-e81d46516c9a",
            "resource": {
                "resourceType": "Observation",
                "code": {
                    "coding": [
                        {
                            "code": "RESLT",
                            "display": "Result",
                            "system": "L"
                        }
                    ]
                },
                "effectiveDateTime": "2019-05-14T10:24:17+00:00",
                "identifier": [
                    {
                        "type": {
                            "coding": [
                                {
                                    "code": "FILL",
                                    "system": "http://terminology.hl7.org/CodeSystem/v2-0203"
                                }
                            ]
                        },
                        "value": "190000041:27491"
                    }
                ],
                "performer": [
                    {
                        "identifier": {
                            "system": "https://fhir.nhs.uk/Id/ods-organization-code",
                            "value": "699X0"
                        },
                        "type": "Organization"
                    }
                ],
                "status": "final",
                "subject": {
                    "identifier": {
                        "assigner": {
                            "identifier": {
                                "system": "https://fhir.nhs.uk/Id/ods-organization-code",
                                "value": "X24"
                            }
                        },
                        "system": "https://fhir.nhs.uk/Id/nhs-number",
                        "type": {
                            "coding": [
                                {
                                    "code": "NH",
                                    "system": "http://terminology.hl7.org/CodeSystem/v2-0203"
                                }
                            ]
                        },
                        "value": "9737383257"
                    },
                    "reference": "urn:uuid:32145530-975e-400b-9833-17fd705a7974"
                },
                "valueString": "dhjhd"
            }
        },
        {
            "fullUrl": "urn:uuid:ef8430c7-066a-43e8-8a81-cc9cecc1a9dc",
            "resource": {
                "resourceType": "Observation",
                "code": {
                    "coding": [
                        {
                            "code": "GRFALN1",
                            "display": "AlphaNumeric Generic Result Field 1",
                            "system": "L"
                        }
                    ]
                },
                "effectiveDateTime": "2019-05-14T10:23:35+00:00",
                "identifier": [
                    {
                        "type": {
                            "coding": [
                                {
                                    "code": "FILL",
                                    "system": "http://terminology.hl7.org/CodeSystem/v2-0203"
                                }
                            ]
                        },
                        "value": "190000041:27491"
                    }
                ],
                "performer": [
                    {
                        "identifier": {
                            "system": "https://fhir.nhs.uk/Id/ods-organization-code",
                            "value": "699X0"
                        },
                        "type": "Organization"
                    }
                ],
                "status": "final",
                "subject": {
                    "identifier": {
                        "assigner": {
                            "identifier": {
                                "system": "https://fhir.nhs.uk/Id/ods-organization-code",
                                "value": "X24"
                            }
                        },
                        "system": "https://fhir.nhs.uk/Id/nhs-number",
                        "type": {
                            "coding": [
                                {
                                    "code": "NH",
                                    "system": "http://terminology.hl7.org/CodeSystem/v2-0203"
                                }
                            ]
                        },
                        "value": "9737383257"
                    },
                    "reference": "urn:uuid:32145530-975e-400b-9833-17fd705a7974"
                },
                "valueString": "234dfsgsg"
            }
        },
        {
            "fullUrl": "urn:uuid:97914c64-2cd2-46da-af92-0585a426dc6a",
            "resource": {
                "resourceType": "Binary",
                "contentType": "application/pdf",
                "data": "JVBERi0xLjMKJeLjz9MKMiAwIG9iago8PC..."
            }
        },
        {
            "fullUrl": "urn:uuid:8d9938c2-4567-4676-ac1c-6fcfffa3b9e5",
            "resource": {
                "resourceType": "DocumentReference",
                "content": [
                    {
                        "attachment": {
                            "contentType": "application/pdf",
                            "url": "urn:uuid:97914c64-2cd2-46da-af92-0585a426dc6a"
                        }
                    }
                ],
                "context": {
                    "period": {
                        "end": "2019-05-14T10:23:35+00:00",
                        "start": "2019-05-14T10:23:35+00:00"
                    },
                    "related": [
                        {
                            "identifier": {
                                "type": {
                                    "coding": [
                                        {
                                            "code": "FILL",
                                            "system": "http://terminology.hl7.org/CodeSystem/v2-0203"
                                        }
                                    ]
                                },
                                "value": "190000041:27491"
                            },
                            "reference": "urn:uuid:8604ac59-5649-4ff2-b324-2f00be4c1c11",
                            "type": "DiagnosticReport"
                        }
                    ]
                },
                "custodian": {
                    "identifier": {
                        "system": "https://fhir.nhs.uk/Id/ods-organization-code",
                        "value": "699X0"
                    },
                    "type": "Organization"
                },
                "date": "2019-05-14T10:23:35+00:00",
                "identifier": [
                    {
                        "type": {
                            "coding": [
                                {
                                    "code": "FILL",
                                    "system": "http://terminology.hl7.org/CodeSystem/v2-0203"
                                }
                            ]
                        },
                        "value": "190000041:27491"
                    }
                ],
                "status": "current",
                "subject": {
                    "identifier": {
                        "assigner": {
                            "identifier": {
                                "system": "https://fhir.nhs.uk/Id/ods-organization-code",
                                "value": "X24"
                            }
                        },
                        "system": "https://fhir.nhs.uk/Id/nhs-number",
                        "type": {
                            "coding": [
                                {
                                    "code": "NH",
                                    "system": "http://terminology.hl7.org/CodeSystem/v2-0203"
                                }
                            ]
                        },
                        "value": "9737383257"
                    },
                    "reference": "urn:uuid:32145530-975e-400b-9833-17fd705a7974"
                },
                "type": {
                    "coding": [
                        {
                            "code": "MOLT",
                            "display": "MOL TEST NAME",
                            "system": "L"
                        }
                    ]
                }
            }
        },
        {
            "fullUrl": "urn:uuid:964cae07-2822-4005-a018-5a41b33be83b",
            "resource": {
                "resourceType": "DocumentReference",
                "content": [
                    {
                        "attachment": {
                            "url": "http://documents.example.com/document123.pdf"
                        }
                    }
                ],
                "context": {
                    "period": {
                        "end": "2019-05-14T10:23:35+00:00",
                        "start": "2019-05-14T10:23:35+00:00"
                    },
                    "related": [
                        {
                            "identifier": {
                                "type": {
                                    "coding": [
                                        {
                                            "code": "FILL",
                                            "system": "http://terminology.hl7.org/CodeSystem/v2-0203"
                                        }
                                    ]
                                },
                                "value": "190000041:27491"
                            },
                            "reference": "urn:uuid:8604ac59-5649-4ff2-b324-2f00be4c1c11",
                            "type": "DiagnosticReport"
                        }
                    ]
                },
                "custodian": {
                    "identifier": {
                        "system": "https://fhir.nhs.uk/Id/ods-organization-code",
                        "value": "699X0"
                    },
                    "type": "Organization"
                },
                "date": "2019-05-14T10:23:35+00:00",
                "identifier": [
                    {
                        "type": {
                            "coding": [
                                {
                                    "code": "FILL",
                                    "system": "http://terminology.hl7.org/CodeSystem/v2-0203"
                                }
                            ]
                        },
                        "value": "190000041:27491"
                    }
                ],
                "status": "current",
                "subject": {
                    "identifier": {
                        "assigner": {
                            "identifier": {
                                "system": "https://fhir.nhs.uk/Id/ods-organization-code",
                                "value": "X24"
                            }
                        },
                        "system": "https://fhir.nhs.uk/Id/nhs-number",
                        "type": {
                            "coding": [
                                {
                                    "code": "NH",
                                    "system": "http://terminology.hl7.org/CodeSystem/v2-0203"
                                }
                            ]
                        },
                        "value": "9737383257"
                    },
                    "reference": "urn:uuid:32145530-975e-400b-9833-17fd705a7974"
                },
                "type": {
                    "coding": [
                        {
                            "code": "MOLT",
                            "display": "MOL TEST NAME",
                            "system": "L"
                        }
                    ]
                }
            }
        },
        {
            "fullUrl": "urn:uuid:09604013-6672-4d75-9ab9-e3b2ee9067b3",
            "resource": {
                "resourceType": "Specimen",
                "identifier": [
                    {
                        "type": {
                            "coding": [
                                {
                                    "code": "PLAC",
                                    "system": "http://terminology.hl7.org/CodeSystem/v2-0203"
                                }
                            ]
                        },
                        "value": "190000041:27491"
                    }
                ],
                "receivedTime": "2019-05-14T10:20:00+00:00",
                "status": "unavailable",
                "subject": {
                    "identifier": {
                        "assigner": {
                            "identifier": {
                                "system": "https://fhir.nhs.uk/Id/ods-organization-code",
                                "value": "X24"
                            }
                        },
                        "system": "https://fhir.nhs.uk/Id/nhs-number",
                        "type": {
                            "coding": [
                                {
                                    "code": "NH",
                                    "system": "http://terminology.hl7.org/CodeSystem/v2-0203"
                                }
                            ]
                        },
                        "value": "9737383257"
                    },
                    "reference": "urn:uuid:32145530-975e-400b-9833-17fd705a7974"
                }
            }
        },
        {
            "fullUrl": "urn:uuid:8604ac59-5649-4ff2-b324-2f00be4c1c11",
            "resource": {
                "resourceType": "DiagnosticReport",
                "category": [
                    {
                        "coding": [
                            {
                                "code": "GE",
                                "system": "http://terminology.hl7.org/CodeSystem/v2-0074"
                            }
                        ]
                    }
                ],
                "code": {
                    "coding": [
                        {
                            "code": "MOLT",
                            "display": "MOL TEST NAME",
                            "system": "L"
                        }
                    ]
                },
                "effectiveDateTime": "2019-05-14T10:20:00+00:00",
                "identifier": [
                    {
                        "type": {
                            "coding": [
                                {
                                    "code": "FILL",
                                    "system": "http://terminology.hl7.org/CodeSystem/v2-0203"
                                }
                            ]
                        },
                        "value": "190000041:27491"
                    }
                ],
                "issued": "2019-05-14T10:24:17+00:00",
                "performer": [
                    {
                        "extension": [
                            {
                                "url": "http://hl7.org/fhir/StructureDefinition/event-performerFunction",
                                "valueCodeableConcept": {
                                    "coding": [
                                        {
                                            "code": "SPRF",
                                            "system": "http://terminology.hl7.org/CodeSystem/v3-ParticipationType"
                                        }
                                    ]
                                }
                            }
                        ]
                    },
                    {
                        "display": "NHS North West Genomics",
                        "identifier": {
                            "system": "https://fhir.nhs.uk/Id/ods-organization-code",
                            "value": "699X0"
                        },
                        "type": "Organization"
                    }
                ],
                "result": [
                    {
                        "display": "INTERPRETATION",
                        "reference": "urn:uuid:2ea410d7-be0e-4e61-b0b1-1d11b48a08ef",
                        "type": "Observation"
                    },
                    {
                        "display": "Reason for testing",
                        "reference": "urn:uuid:2f1ecd02-f285-443d-a090-6ee8a7b4da6e",
                        "type": "Observation"
                    },
                    {
                        "display": "Test Methodology",
                        "reference": "urn:uuid:84055d60-7348-4131-be95-2790ce890bbb",
                        "type": "Observation"
                    },
                    {
                        "display": "Result summary",
                        "reference": "urn:uuid:e0093d98-dd25-4e73-90cb-ec315449da11",
                        "type": "Observation"
                    },
                    {
                        "display": "Patient phenotype",
                        "reference": "urn:uuid:8013d95f-916e-4560-aef3-e8ae6521e801",
                        "type": "Observation"
                    },
                    {
                        "display": "Follow-up",
                        "reference": "urn:uuid:e766159e-8fe3-4a9d-b159-89ffacded100",
                        "type": "Observation"
                    },
                    {
                        "display": "Result",
                        "reference": "urn:uuid:32961285-3290-411f-ac54-e81d46516c9a",
                        "type": "Observation"
                    },
                    {
                        "display": "AlphaNumeric Generic Result Field 1",
                        "reference": "urn:uuid:ef8430c7-066a-43e8-8a81-cc9cecc1a9dc",
                        "type": "Observation"
                    }
                ],
                "specimen": [
                    {
                        "reference": "urn:uuid:09604013-6672-4d75-9ab9-e3b2ee9067b3",
                        "type": "Specimen"
                    }
                ],
                "status": "final",
                "subject": {
                    "identifier": {
                        "assigner": {
                            "identifier": {
                                "system": "https://fhir.nhs.uk/Id/ods-organization-code",
                                "value": "X24"
                            }
                        },
                        "system": "https://fhir.nhs.uk/Id/nhs-number",
                        "type": {
                            "coding": [
                                {
                                    "code": "NH",
                                    "system": "http://terminology.hl7.org/CodeSystem/v2-0203"
                                }
                            ]
                        },
                        "value": "9737383257"
                    },
                    "reference": "urn:uuid:32145530-975e-400b-9833-17fd705a7974"
                }
            }
        }
    ],
    "identifier": {
        "value": "5051095-201905141025"
    },
    "timestamp": "2019-05-14T10:25:27+00:00",
    "type": "message"
}