{
    "resourceType": "Bundle",
    "entry": [
        {
            "fullUrl": "urn:uuid:03117674-28fc-4017-bd53-665fd7ff4e77",
            "resource": {
                "resourceType": "MessageHeader",
                "destination": [
                    {
                        "endpoint": "https//fhir.mft.nhs.uk/Endpoint/EPIC",
                        "receiver": {
                            "identifier": {
                                "system": "https://fhir.nhs.uk/Id/ods-organization-code",
                                "value": "699X0"
                            }
                        }
                    }
                ],
                "eventCoding": {
                    "code": "T02",
                    "system": "http://terminology.hl7.org/CodeSystem/v2-0003"
                },
                "focus": [
                    {
                        "reference": "urn:uuid:ce7f04af-683d-41bd-a7db-cf7337f7a074"
                    }
                ],
                "sender": {
                    "identifier": {
                        "system": "https://fhir.nhs.uk/Id/ods-organization-code",
                        "value": "699X0"
                    }
                },
                "source": {
                    "endpoint": "https://fhir.nwgenomics.nhs.uk/Endpoint/IGENE",
                    "software": "NW GLH"
                }
            }
        },
        {
            "fullUrl": "urn:uuid:23257de2-6799-47e2-894e-3a3b0f2e1dd2",
            "resource": {
                "resourceType": "Patient",
                "address": [
                    {
                        "postalCode": "LA1 1PJ"
                    }
                ],
                "birthDate": "1970-07-27",
                "gender": "male",
                "identifier": [
                    {
                        "system": "https://fhir.nhs.uk/Id/nhs-number",
                        "type": {
                            "coding": [
                                {
                                    "code": "NH",
                                    "system": "http://terminology.hl7.org/CodeSystem/v2-0203"
                                }
                            ]
                        },
                        "value": "9737383214"
                    }
                ],
                "name": [
                    {
                        "family": "LANCASTER",
                        "given": [
                            "Jaime"
                        ]
                    }
                ]
            }
        },
        {
            "fullUrl": "urn:uuid:e20384c5-7f63-410a-9643-1f89285a5d55",
            "resource": {
                "resourceType": "Observation",
                "code": {
                    "coding": [
                        {
                            "code": "53577-3",
                            "display": "Reason for study",
                            "system": "http://loinc.org"
                        }
                    ]
                },
                "identifier": [
                    {
                        "assigner": {
                            "identifier": {
                                "system": "https://fhir.nhs.uk/Id/ods-organization-code",
                                "value": "699X0"
                            }
                        },
                        "system": "https://fhir.nwgenomics.nhs.uk/iGene/ReportIdentifier",
                        "type": {
                            "coding": [
                                {
                                    "code": "FILL",
                                    "system": "http://terminology.hl7.org/CodeSystem/v2-0203"
                                }
                            ]
                        },
                        "value": "Gen825750"
                    }
                ],
                "performer": [
                    {
                        "identifier": {
                            "system": "https://fhir.nhs.uk/Id/ods-organization-code",
                            "value": "699X0"
                        },
                        "type": "Organization"
                    }
                ],
                "status": "final",
                "subject": {
                    "identifier": {
                        "system": "https://fhir.nhs.uk/Id/nhs-number",
                        "type": {
                            "coding": [
                                {
                                    "code": "NH",
                                    "system": "http://terminology.hl7.org/CodeSystem/v2-0203"
                                }
                            ]
                        },
                        "value": "9737383214"
                    },
                    "reference": "urn:uuid:23257de2-6799-47e2-894e-3a3b0f2e1dd2"
                },
                "valueString": "Patient may be carrier for cystic fibrosis"
            }
        },
        {
            "fullUrl": "urn:uuid:06a3f568-b649-402b-a9e0-250b33fda2e8",
            "resource": {
                "resourceType": "Observation",
                "code": {
                    "coding": [
                        {
                            "code": "51967-8",
                            "display": "Genetic disease(s) assessed",
                            "system": "http://loinc.org"
                        }
                    ]
                },
                "identifier": [
                    {
                        "assigner": {
                            "identifier": {
                                "system": "https://fhir.nhs.uk/Id/ods-organization-code",
                                "value": "699X0"
                            }
                        },
                        "system": "https://fhir.nwgenomics.nhs.uk/iGene/ReportIdentifier",
                        "type": {
                            "coding": [
                                {
                                    "code": "FILL",
                                    "system": "http://terminology.hl7.org/CodeSystem/v2-0203"
                                }
                            ]
                        },
                        "value": "Gen825750"
                    }
                ],
                "performer": [
                    {
                        "identifier": {
                            "system": "https://fhir.nhs.uk/Id/ods-organization-code",
                            "value": "699X0"
                        },
                        "type": "Organization"
                    }
                ],
                "status": "final",
                "subject": {
                    "identifier": {
                        "system": "https://fhir.nhs.uk/Id/nhs-number",
                        "type": {
                            "coding": [
                                {
                                    "code": "NH",
                                    "system": "http://terminology.hl7.org/CodeSystem/v2-0203"
                                }
                            ]
                        },
                        "value": "9737383214"
                    },
                    "reference": "urn:uuid:23257de2-6799-47e2-894e-3a3b0f2e1dd2"
                },
                "valueCodeableConcept": {
                    "coding": [
                        {
                            "code": "C0010674",
                            "display": "Cystic fibrosis",
                            "system": "MedGen-Dis"
                        }
                    ]
                }
            }
        },
        {
            "fullUrl": "urn:uuid:269831cb-8edd-4c5a-a1a8-c29837fbbe92",
            "resource": {
                "resourceType": "Observation",
                "code": {
                    "coding": [
                        {
                            "code": "51958-7",
                            "display": "Transcript reference sequence [Identifier]",
                            "system": "http://loinc.org"
                        }
                    ]
                },
                "identifier": [
                    {
                        "assigner": {
                            "identifier": {
                                "system": "https://fhir.nhs.uk/Id/ods-organization-code",
                                "value": "699X0"
                            }
                        },
                        "system": "https://fhir.nwgenomics.nhs.uk/iGene/ReportIdentifier",
                        "type": {
                            "coding": [
                                {
                                    "code": "FILL",
                                    "system": "http://terminology.hl7.org/CodeSystem/v2-0203"
                                }
                            ]
                        },
                        "value": "Gen825750"
                    }
                ],
                "performer": [
                    {
                        "identifier": {
                            "system": "https://fhir.nhs.uk/Id/ods-organization-code",
                            "value": "699X0"
                        },
                        "type": "Organization"
                    }
                ],
                "status": "final",
                "subject": {
                    "identifier": {
                        "system": "https://fhir.nhs.uk/Id/nhs-number",
                        "type": {
                            "coding": [
                                {
                                    "code": "NH",
                                    "system": "http://terminology.hl7.org/CodeSystem/v2-0203"
                                }
                            ]
                        },
                        "value": "9737383214"
                    },
                    "reference": "urn:uuid:23257de2-6799-47e2-894e-3a3b0f2e1dd2"
                },
                "valueCodeableConcept": {
                    "coding": [
                        {
                            "code": "NM_000492.3",
                            "display": "NM_000492.3",
                            "system": "http://www.ncbi.nlm.nih.gov/refseq"
                        }
                    ]
                }
            }
        },
        {
            "fullUrl": "urn:uuid:f02800d3-ab4e-4521-82ae-914d66de70df",
            "resource": {
                "resourceType": "Observation",
                "code": {
                    "coding": [
                        {
                            "code": "48018-6",
                            "display": "Gene studied",
                            "system": "http://loinc.org"
                        }
                    ]
                },
                "identifier": [
                    {
                        "assigner": {
                            "identifier": {
                                "system": "https://fhir.nhs.uk/Id/ods-organization-code",
                                "value": "699X0"
                            }
                        },
                        "system": "https://fhir.nwgenomics.nhs.uk/iGene/ReportIdentifier",
                        "type": {
                            "coding": [
                                {
                                    "code": "FILL",
                                    "system": "http://terminology.hl7.org/CodeSystem/v2-0203"
                                }
                            ]
                        },
                        "value": "Gen825750"
                    }
                ],
                "performer": [
                    {
                        "identifier": {
                            "system": "https://fhir.nhs.uk/Id/ods-organization-code",
                            "value": "699X0"
                        },
                        "type": "Organization"
                    }
                ],
                "status": "final",
                "subject": {
                    "identifier": {
                        "system": "https://fhir.nhs.uk/Id/nhs-number",
                        "type": {
                            "coding": [
                                {
                                    "code": "NH",
                                    "system": "http://terminology.hl7.org/CodeSystem/v2-0203"
                                }
                            ]
                        },
                        "value": "9737383214"
                    },
                    "reference": "urn:uuid:23257de2-6799-47e2-894e-3a3b0f2e1dd2"
                },
                "valueCodeableConcept": {
                    "coding": [
                        {
                            "code": "1884",
                            "display": "CFTR",
                            "system": "http://www.genenames.org"
                        }
                    ]
                }
            }
        },
        {
            "fullUrl": "urn:uuid:3baeba4a-4883-4a33-8a2a-b25f040a93a7",
            "resource": {
                "resourceType": "Observation",
                "code": {
                    "coding": [
                        {
                            "code": "36908-2",
                            "display": "Gene mutations tested",
                            "system": "http://loinc.org"
                        }
                    ]
                },
                "identifier": [
                    {
                        "assigner": {
                            "identifier": {
                                "system": "https://fhir.nhs.uk/Id/ods-organization-code",
                                "value": "699X0"
                            }
                        },
                        "system": "https://fhir.nwgenomics.nhs.uk/iGene/ReportIdentifier",
                        "type": {
                            "coding": [
                                {
                                    "code": "FILL",
                                    "system": "http://terminology.hl7.org/CodeSystem/v2-0203"
                                }
                            ]
                        },
                        "value": "Gen825750"
                    }
                ],
                "performer": [
                    {
                        "identifier": {
                            "system": "https://fhir.nhs.uk/Id/ods-organization-code",
                            "value": "699X0"
                        },
                        "type": "Organization"
                    }
                ],
                "status": "final",
                "subject": {
                    "identifier": {
                        "system": "https://fhir.nhs.uk/Id/nhs-number",
                        "type": {
                            "coding": [
                                {
                                    "code": "NH",
                                    "system": "http://terminology.hl7.org/CodeSystem/v2-0203"
                                }
                            ]
                        },
                        "value": "9737383214"
                    },
                    "reference": "urn:uuid:23257de2-6799-47e2-894e-3a3b0f2e1dd2"
                },
                "valueCodeableConcept": {
                    "coding": [
                        {
                            "code": "7105",
                            "display": "NM_000492.3(CFTR):c.1521_1523delCTT (p.Phe508delPhe)",
                            "system": "http://www.ncbi.nlm.nih.gov/clinvar"
                        }
                    ]
                }
            }
        },
        {
            "fullUrl": "urn:uuid:706cef76-987a-4b05-812c-86cb7783a0ad",
            "resource": {
                "resourceType": "Observation",
                "code": {
                    "coding": [
                        {
                            "code": "36908-2",
                            "display": "Gene mutations tested",
                            "system": "http://loinc.org"
                        }
                    ]
                },
                "identifier": [
                    {
                        "assigner": {
                            "identifier": {
                                "system": "https://fhir.nhs.uk/Id/ods-organization-code",
                                "value": "699X0"
                            }
                        },
                        "system": "https://fhir.nwgenomics.nhs.uk/iGene/ReportIdentifier",
                        "type": {
                            "coding": [
                                {
                                    "code": "FILL",
                                    "system": "http://terminology.hl7.org/CodeSystem/v2-0203"
                                }
                            ]
                        },
                        "value": "Gen825750"
                    }
                ],
                "performer": [
                    {
                        "identifier": {
                            "system": "https://fhir.nhs.uk/Id/ods-organization-code",
                            "value": "699X0"
                        },
                        "type": "Organization"
                    }
                ],
                "status": "final",
                "subject": {
                    "identifier": {
                        "system": "https://fhir.nhs.uk/Id/nhs-number",
                        "type": {
                            "coding": [
                                {
                                    "code": "NH",
                                    "system": "http://terminology.hl7.org/CodeSystem/v2-0203"
                                }
                            ]
                        },
                        "value": "9737383214"
                    },
                    "reference": "urn:uuid:23257de2-6799-47e2-894e-3a3b0f2e1dd2"
                },
                "valueCodeableConcept": {
                    "coding": [
                        {
                            "code": "7106",
                            "display": "NM_000492.3(CFTR):c.1519_1521delATC(p.Ile507del)",
                            "system": "http://www.ncbi.nlm.nih.gov/clinvar"
                        }
                    ]
                }
            }
        },
        {
            "fullUrl": "urn:uuid:2483b21d-6863-43da-9e9d-0e960ff87d58",
            "resource": {
                "resourceType": "Observation",
                "code": {
                    "coding": [
                        {
                            "code": "36908-2",
                            "display": "Gene mutations tested",
                            "system": "http://loinc.org"
                        }
                    ]
                },
                "identifier": [
                    {
                        "assigner": {
                            "identifier": {
                                "system": "https://fhir.nhs.uk/Id/ods-organization-code",
                                "value": "699X0"
                            }
                        },
                        "system": "https://fhir.nwgenomics.nhs.uk/iGene/ReportIdentifier",
                        "type": {
                            "coding": [
                                {
                                    "code": "FILL",
                                    "system": "http://terminology.hl7.org/CodeSystem/v2-0203"
                                }
                            ]
                        },
                        "value": "Gen825750"
                    }
                ],
                "performer": [
                    {
                        "identifier": {
                            "system": "https://fhir.nhs.uk/Id/ods-organization-code",
                            "value": "699X0"
                        },
                        "type": "Organization"
                    }
                ],
                "status": "final",
                "subject": {
                    "identifier": {
                        "system": "https://fhir.nhs.uk/Id/nhs-number",
                        "type": {
                            "coding": [
                                {
                                    "code": "NH",
                                    "system": "http://terminology.hl7.org/CodeSystem/v2-0203"
                                }
                            ]
                        },
                        "value": "9737383214"
                    },
                    "reference": "urn:uuid:23257de2-6799-47e2-894e-3a3b0f2e1dd2"
                },
                "valueCodeableConcept": {
                    "coding": [
                        {
                            "code": "7129",
                            "display": "NM_000492.3(CFTR):c.3846G>A (p.Trp1282Ter)",
                            "system": "http://www.ncbi.nlm.nih.gov/clinvar"
                        }
                    ]
                }
            }
        },
        {
            "fullUrl": "urn:uuid:944c5385-f0c4-4cde-8d48-bbf2c3a01a8d",
            "resource": {
                "resourceType": "Observation",
                "code": {
                    "coding": [
                        {
                            "code": "36908-2",
                            "display": "Gene mutations tested",
                            "system": "http://loinc.org"
                        }
                    ]
                },
                "identifier": [
                    {
                        "assigner": {
                            "identifier": {
                                "system": "https://fhir.nhs.uk/Id/ods-organization-code",
                                "value": "699X0"
                            }
                        },
                        "system": "https://fhir.nwgenomics.nhs.uk/iGene/ReportIdentifier",
                        "type": {
                            "coding": [
                                {
                                    "code": "FILL",
                                    "system": "http://terminology.hl7.org/CodeSystem/v2-0203"
                                }
                            ]
                        },
                        "value": "Gen825750"
                    }
                ],
                "performer": [
                    {
                        "identifier": {
                            "system": "https://fhir.nhs.uk/Id/ods-organization-code",
                            "value": "699X0"
                        },
                        "type": "Organization"
                    }
                ],
                "status": "final",
                "subject": {
                    "identifier": {
                        "system": "https://fhir.nhs.uk/Id/nhs-number",
                        "type": {
                            "coding": [
                                {
                                    "code": "NH",
                                    "system": "http://terminology.hl7.org/CodeSystem/v2-0203"
                                }
                            ]
                        },
                        "value": "9737383214"
                    },
                    "reference": "urn:uuid:23257de2-6799-47e2-894e-3a3b0f2e1dd2"
                },
                "valueCodeableConcept": {
                    "coding": [
                        {
                            "code": "38799",
                            "display": "NM_000492.3(CFTR):c.489+1G>T",
                            "system": "http://www.ncbi.nlm.nih.gov/clinvar"
                        }
                    ]
                }
            }
        },
        {
            "fullUrl": "urn:uuid:3249d847-f24c-4c88-9774-a9c8a9d699b6",
            "resource": {
                "resourceType": "Observation",
                "code": {
                    "coding": [
                        {
                            "code": "36908-2",
                            "display": "Gene mutations tested",
                            "system": "http://loinc.org"
                        }
                    ]
                },
                "identifier": [
                    {
                        "assigner": {
                            "identifier": {
                                "system": "https://fhir.nhs.uk/Id/ods-organization-code",
                                "value": "699X0"
                            }
                        },
                        "system": "https://fhir.nwgenomics.nhs.uk/iGene/ReportIdentifier",
                        "type": {
                            "coding": [
                                {
                                    "code": "FILL",
                                    "system": "http://terminology.hl7.org/CodeSystem/v2-0203"
                                }
                            ]
                        },
                        "value": "Gen825750"
                    }
                ],
                "performer": [
                    {
                        "identifier": {
                            "system": "https://fhir.nhs.uk/Id/ods-organization-code",
                            "value": "699X0"
                        },
                        "type": "Organization"
                    }
                ],
                "status": "final",
                "subject": {
                    "identifier": {
                        "system": "https://fhir.nhs.uk/Id/nhs-number",
                        "type": {
                            "coding": [
                                {
                                    "code": "NH",
                                    "system": "http://terminology.hl7.org/CodeSystem/v2-0203"
                                }
                            ]
                        },
                        "value": "9737383214"
                    },
                    "reference": "urn:uuid:23257de2-6799-47e2-894e-3a3b0f2e1dd2"
                },
                "valueCodeableConcept": {
                    "coding": [
                        {
                            "code": "Gly542Ter",
                            "display": "Gly542Ter",
                            "system": "http://varnomen.hgvs.org"
                        }
                    ]
                }
            }
        },
        {
            "fullUrl": "urn:uuid:849f608d-22b9-4798-a9fd-474fbc82de9c",
            "resource": {
                "resourceType": "Observation",
                "code": {
                    "coding": [
                        {
                            "code": "36908-2",
                            "display": "Gene mutations tested",
                            "system": "http://loinc.org"
                        }
                    ]
                },
                "identifier": [
                    {
                        "assigner": {
                            "identifier": {
                                "system": "https://fhir.nhs.uk/Id/ods-organization-code",
                                "value": "699X0"
                            }
                        },
                        "system": "https://fhir.nwgenomics.nhs.uk/iGene/ReportIdentifier",
                        "type": {
                            "coding": [
                                {
                                    "code": "FILL",
                                    "system": "http://terminology.hl7.org/CodeSystem/v2-0203"
                                }
                            ]
                        },
                        "value": "Gen825750"
                    }
                ],
                "performer": [
                    {
                        "identifier": {
                            "system": "https://fhir.nhs.uk/Id/ods-organization-code",
                            "value": "699X0"
                        },
                        "type": "Organization"
                    }
                ],
                "status": "final",
                "subject": {
                    "identifier": {
                        "system": "https://fhir.nhs.uk/Id/nhs-number",
                        "type": {
                            "coding": [
                                {
                                    "code": "NH",
                                    "system": "http://terminology.hl7.org/CodeSystem/v2-0203"
                                }
                            ]
                        },
                        "value": "9737383214"
                    },
                    "reference": "urn:uuid:23257de2-6799-47e2-894e-3a3b0f2e1dd2"
                },
                "valueCodeableConcept": {
                    "coding": [
                        {
                            "code": "Arg117His",
                            "display": "Arg117His",
                            "system": "http://varnomen.hgvs.org"
                        }
                    ]
                }
            }
        },
        {
            "fullUrl": "urn:uuid:c4cc3e55-0966-4833-ae04-76dc01e39ecc",
            "resource": {
                "resourceType": "Observation",
                "code": {
                    "coding": [
                        {
                            "code": "36908-2",
                            "display": "Gene mutations tested",
                            "system": "http://loinc.org"
                        }
                    ]
                },
                "identifier": [
                    {
                        "assigner": {
                            "identifier": {
                                "system": "https://fhir.nhs.uk/Id/ods-organization-code",
                                "value": "699X0"
                            }
                        },
                        "system": "https://fhir.nwgenomics.nhs.uk/iGene/ReportIdentifier",
                        "type": {
                            "coding": [
                                {
                                    "code": "FILL",
                                    "system": "http://terminology.hl7.org/CodeSystem/v2-0203"
                                }
                            ]
                        },
                        "value": "Gen825750"
                    }
                ],
                "performer": [
                    {
                        "identifier": {
                            "system": "https://fhir.nhs.uk/Id/ods-organization-code",
                            "value": "699X0"
                        },
                        "type": "Organization"
                    }
                ],
                "status": "final",
                "subject": {
                    "identifier": {
                        "system": "https://fhir.nhs.uk/Id/nhs-number",
                        "type": {
                            "coding": [
                                {
                                    "code": "NH",
                                    "system": "http://terminology.hl7.org/CodeSystem/v2-0203"
                                }
                            ]
                        },
                        "value": "9737383214"
                    },
                    "reference": "urn:uuid:23257de2-6799-47e2-894e-3a3b0f2e1dd2"
                },
                "valueCodeableConcept": {
                    "coding": [
                        {
                            "code": "711+1G>T",
                            "display": "711+1G>T",
                            "system": "http://varnomen.hgvs.org"
                        }
                    ]
                }
            }
        },
        {
            "fullUrl": "urn:uuid:6f2b470b-57ff-4666-b7a7-f18c3d16dc94",
            "resource": {
                "resourceType": "Observation",
                "code": {
                    "coding": [
                        {
                            "code": "36908-2",
                            "display": "Gene mutations tested",
                            "system": "http://loinc.org"
                        }
                    ]
                },
                "identifier": [
                    {
                        "assigner": {
                            "identifier": {
                                "system": "https://fhir.nhs.uk/Id/ods-organization-code",
                                "value": "699X0"
                            }
                        },
                        "system": "https://fhir.nwgenomics.nhs.uk/iGene/ReportIdentifier",
                        "type": {
                            "coding": [
                                {
                                    "code": "FILL",
                                    "system": "http://terminology.hl7.org/CodeSystem/v2-0203"
                                }
                            ]
                        },
                        "value": "Gen825750"
                    }
                ],
                "performer": [
                    {
                        "identifier": {
                            "system": "https://fhir.nhs.uk/Id/ods-organization-code",
                            "value": "699X0"
                        },
                        "type": "Organization"
                    }
                ],
                "status": "final",
                "subject": {
                    "identifier": {
                        "system": "https://fhir.nhs.uk/Id/nhs-number",
                        "type": {
                            "coding": [
                                {
                                    "code": "NH",
                                    "system": "http://terminology.hl7.org/CodeSystem/v2-0203"
                                }
                            ]
                        },
                        "value": "9737383214"
                    },
                    "reference": "urn:uuid:23257de2-6799-47e2-894e-3a3b0f2e1dd2"
                },
                "valueCodeableConcept": {
                    "coding": [
                        {
                            "code": "Asn1303Lys(C>A)",
                            "display": "Asn1303Lys(C>A)",
                            "system": "http://varnomen.hgvs.org"
                        }
                    ]
                }
            }
        },
        {
            "fullUrl": "urn:uuid:bd41afec-21a5-477a-a395-4e6f6b6c58c7",
            "resource": {
                "resourceType": "Observation",
                "code": {
                    "coding": [
                        {
                            "code": "36908-2",
                            "display": "Gene mutations tested",
                            "system": "http://loinc.org"
                        }
                    ]
                },
                "identifier": [
                    {
                        "assigner": {
                            "identifier": {
                                "system": "https://fhir.nhs.uk/Id/ods-organization-code",
                                "value": "699X0"
                            }
                        },
                        "system": "https://fhir.nwgenomics.nhs.uk/iGene/ReportIdentifier",
                        "type": {
                            "coding": [
                                {
                                    "code": "FILL",
                                    "system": "http://terminology.hl7.org/CodeSystem/v2-0203"
                                }
                            ]
                        },
                        "value": "Gen825750"
                    }
                ],
                "performer": [
                    {
                        "identifier": {
                            "system": "https://fhir.nhs.uk/Id/ods-organization-code",
                            "value": "699X0"
                        },
                        "type": "Organization"
                    }
                ],
                "status": "final",
                "subject": {
                    "identifier": {
                        "system": "https://fhir.nhs.uk/Id/nhs-number",
                        "type": {
                            "coding": [
                                {
                                    "code": "NH",
                                    "system": "http://terminology.hl7.org/CodeSystem/v2-0203"
                                }
                            ]
                        },
                        "value": "9737383214"
                    },
                    "reference": "urn:uuid:23257de2-6799-47e2-894e-3a3b0f2e1dd2"
                },
                "valueCodeableConcept": {
                    "coding": [
                        {
                            "code": "Arg334Trp",
                            "display": "Arg334Trp",
                            "system": "http://varnomen.hgvs.org"
                        }
                    ]
                }
            }
        },
        {
            "fullUrl": "urn:uuid:739d6cb4-a542-4acb-a9db-b85a73b2b6fa",
            "resource": {
                "resourceType": "Observation",
                "code": {
                    "coding": [
                        {
                            "code": "36908-2",
                            "display": "Gene mutations tested",
                            "system": "http://loinc.org"
                        }
                    ]
                },
                "identifier": [
                    {
                        "assigner": {
                            "identifier": {
                                "system": "https://fhir.nhs.uk/Id/ods-organization-code",
                                "value": "699X0"
                            }
                        },
                        "system": "https://fhir.nwgenomics.nhs.uk/iGene/ReportIdentifier",
                        "type": {
                            "coding": [
                                {
                                    "code": "FILL",
                                    "system": "http://terminology.hl7.org/CodeSystem/v2-0203"
                                }
                            ]
                        },
                        "value": "Gen825750"
                    }
                ],
                "performer": [
                    {
                        "identifier": {
                            "system": "https://fhir.nhs.uk/Id/ods-organization-code",
                            "value": "699X0"
                        },
                        "type": "Organization"
                    }
                ],
                "status": "final",
                "subject": {
                    "identifier": {
                        "system": "https://fhir.nhs.uk/Id/nhs-number",
                        "type": {
                            "coding": [
                                {
                                    "code": "NH",
                                    "system": "http://terminology.hl7.org/CodeSystem/v2-0203"
                                }
                            ]
                        },
                        "value": "9737383214"
                    },
                    "reference": "urn:uuid:23257de2-6799-47e2-894e-3a3b0f2e1dd2"
                },
                "valueCodeableConcept": {
                    "coding": [
                        {
                            "code": "Arg347Pro",
                            "display": "Arg347Pro",
                            "system": "http://varnomen.hgvs.org"
                        }
                    ]
                }
            }
        },
        {
            "fullUrl": "urn:uuid:14d17668-0844-4411-95d0-162f7068e732",
            "resource": {
                "resourceType": "Observation",
                "code": {
                    "coding": [
                        {
                            "code": "36908-2",
                            "display": "Gene mutations tested",
                            "system": "http://loinc.org"
                        }
                    ]
                },
                "identifier": [
                    {
                        "assigner": {
                            "identifier": {
                                "system": "https://fhir.nhs.uk/Id/ods-organization-code",
                                "value": "699X0"
                            }
                        },
                        "system": "https://fhir.nwgenomics.nhs.uk/iGene/ReportIdentifier",
                        "type": {
                            "coding": [
                                {
                                    "code": "FILL",
                                    "system": "http://terminology.hl7.org/CodeSystem/v2-0203"
                                }
                            ]
                        },
                        "value": "Gen825750"
                    }
                ],
                "performer": [
                    {
                        "identifier": {
                            "system": "https://fhir.nhs.uk/Id/ods-organization-code",
                            "value": "699X0"
                        },
                        "type": "Organization"
                    }
                ],
                "status": "final",
                "subject": {
                    "identifier": {
                        "system": "https://fhir.nhs.uk/Id/nhs-number",
                        "type": {
                            "coding": [
                                {
                                    "code": "NH",
                                    "system": "http://terminology.hl7.org/CodeSystem/v2-0203"
                                }
                            ]
                        },
                        "value": "9737383214"
                    },
                    "reference": "urn:uuid:23257de2-6799-47e2-894e-3a3b0f2e1dd2"
                },
                "valueCodeableConcept": {
                    "coding": [
                        {}
                    ]
                }
            }
        },
        {
            "fullUrl": "urn:uuid:4072e30c-6978-4d32-84cf-f6f420569b1b",
            "resource": {
                "resourceType": "Observation",
                "code": {
                    "coding": [
                        {
                            "code": "51968-6",
                            "display": "Discrete variation analysis overall interpretation",
                            "system": "http://loinc.org"
                        }
                    ]
                },
                "identifier": [
                    {
                        "assigner": {
                            "identifier": {
                                "system": "https://fhir.nhs.uk/Id/ods-organization-code",
                                "value": "699X0"
                            }
                        },
                        "system": "https://fhir.nwgenomics.nhs.uk/iGene/ReportIdentifier",
                        "type": {
                            "coding": [
                                {
                                    "code": "FILL",
                                    "system": "http://terminology.hl7.org/CodeSystem/v2-0203"
                                }
                            ]
                        },
                        "value": "Gen825750"
                    }
                ],
                "performer": [
                    {
                        "identifier": {
                            "system": "https://fhir.nhs.uk/Id/ods-organization-code",
                            "value": "699X0"
                        },
                        "type": "Organization"
                    }
                ],
                "status": "final",
                "subject": {
                    "identifier": {
                        "system": "https://fhir.nhs.uk/Id/nhs-number",
                        "type": {
                            "coding": [
                                {
                                    "code": "NH",
                                    "system": "http://terminology.hl7.org/CodeSystem/v2-0203"
                                }
                            ]
                        },
                        "value": "9737383214"
                    },
                    "reference": "urn:uuid:23257de2-6799-47e2-894e-3a3b0f2e1dd2"
                },
                "valueCodeableConcept": {
                    "coding": [
                        {
                            "code": "LA6576-8",
                            "display": "Positive",
                            "system": "http://loinc.org"
                        }
                    ]
                }
            }
        },
        {
            "fullUrl": "urn:uuid:e673d12b-f649-45de-9f88-0d6f90dfb1f7",
            "resource": {
                "resourceType": "Binary",
                "contentType": "application/pdf",
                "data": ""
            }
        },
        {
            "fullUrl": "urn:uuid:d9b3a0d8-8089-46e8-83ee-b73519a7a5be",
            "resource": {
                "resourceType": "DocumentReference",
                "content": [
                    {
                        "attachment": {
                            "contentType": "application/pdf",
                            "url": "urn:uuid:e673d12b-f649-45de-9f88-0d6f90dfb1f7"
                        }
                    }
                ],
                "context": {
                    "period": {
                        "end": "2016-08-09T16:50:00+00:00",
                        "start": "2016-08-09T16:50:00+00:00"
                    },
                    "related": [
                        {
                            "identifier": {
                                "assigner": {
                                    "identifier": {
                                        "system": "https://fhir.nhs.uk/Id/ods-organization-code",
                                        "value": "RBS"
                                    }
                                },
                                "type": {
                                    "coding": [
                                        {
                                            "code": "PLAC",
                                            "system": "http://terminology.hl7.org/CodeSystem/v2-0203"
                                        }
                                    ]
                                },
                                "value": "LRI-1000152867"
                            },
                            "reference": "urn:uuid:da4e097c-224d-4703-a650-66a7b6e1e5ce",
                            "type": "ServiceRequest"
                        },
                        {
                            "identifier": {
                                "assigner": {
                                    "identifier": {
                                        "system": "https://fhir.nhs.uk/Id/ods-organization-code",
                                        "value": "699X0"
                                    }
                                },
                                "system": "https://fhir.nwgenomics.nhs.uk/iGene/ReportIdentifier",
                                "type": {
                                    "coding": [
                                        {
                                            "code": "FILL",
                                            "system": "http://terminology.hl7.org/CodeSystem/v2-0203"
                                        }
                                    ]
                                },
                                "value": "Gen825750"
                            },
                            "reference": "urn:uuid:ce7f04af-683d-41bd-a7db-cf7337f7a074",
                            "type": "DiagnosticReport"
                        }
                    ]
                },
                "custodian": {
                    "identifier": {
                        "system": "https://fhir.nhs.uk/Id/ods-organization-code",
                        "value": "699X0"
                    },
                    "type": "Organization"
                },
                "date": "2016-08-09T16:50:00+00:00",
                "identifier": [
                    {
                        "assigner": {
                            "identifier": {
                                "system": "https://fhir.nhs.uk/Id/ods-organization-code",
                                "value": "699X0"
                            }
                        },
                        "system": "https://fhir.nwgenomics.nhs.uk/iGene/ReportIdentifier",
                        "type": {
                            "coding": [
                                {
                                    "code": "FILL",
                                    "system": "http://terminology.hl7.org/CodeSystem/v2-0203"
                                }
                            ]
                        },
                        "value": "Gen825750"
                    }
                ],
                "status": "current",
                "subject": {
                    "identifier": {
                        "system": "https://fhir.nhs.uk/Id/nhs-number",
                        "type": {
                            "coding": [
                                {
                                    "code": "NH",
                                    "system": "http://terminology.hl7.org/CodeSystem/v2-0203"
                                }
                            ]
                        },
                        "value": "9737383214"
                    },
                    "reference": "urn:uuid:23257de2-6799-47e2-894e-3a3b0f2e1dd2"
                },
                "type": {
                    "coding": [
                        {
                            "code": "1054161000000101",
                            "display": "Genetic report",
                            "system": "http://snomed.info/sct"
                        }
                    ]
                }
            }
        },
        {
            "fullUrl": "urn:uuid:30436d1b-63ee-4127-bbe5-7a203a35becf",
            "resource": {
                "resourceType": "Observation",
                "code": {
                    "coding": [
                        {
                            "code": "62374-4",
                            "display": "Human reference sequence assembly",
                            "system": "http://loinc.org"
                        }
                    ]
                },
                "identifier": [
                    {
                        "assigner": {
                            "identifier": {
                                "system": "https://fhir.nhs.uk/Id/ods-organization-code",
                                "value": "699X0"
                            }
                        },
                        "system": "https://fhir.nwgenomics.nhs.uk/iGene/ReportIdentifier",
                        "type": {
                            "coding": [
                                {
                                    "code": "FILL",
                                    "system": "http://terminology.hl7.org/CodeSystem/v2-0203"
                                }
                            ]
                        },
                        "value": "Gen825750"
                    }
                ],
                "performer": [
                    {
                        "identifier": {
                            "system": "https://fhir.nhs.uk/Id/ods-organization-code",
                            "value": "699X0"
                        },
                        "type": "Organization"
                    }
                ],
                "status": "final",
                "subject": {
                    "identifier": {
                        "system": "https://fhir.nhs.uk/Id/nhs-number",
                        "type": {
                            "coding": [
                                {
                                    "code": "NH",
                                    "system": "http://terminology.hl7.org/CodeSystem/v2-0203"
                                }
                            ]
                        },
                        "value": "9737383214"
                    },
                    "reference": "urn:uuid:23257de2-6799-47e2-894e-3a3b0f2e1dd2"
                },
                "valueCodeableConcept": {
                    "coding": [
                        {
                            "code": "LA14029-5",
                            "display": "GRCh37",
                            "system": "http://loinc.org"
                        }
                    ]
                }
            }
        },
        {
            "fullUrl": "urn:uuid:4d1b0c19-5110-4ea2-b6a9-d2d8174f85d6",
            "resource": {
                "resourceType": "Observation",
                "code": {
                    "coding": [
                        {
                            "code": "82115-7",
                            "display": "dbSNP version",
                            "system": "http://loinc.org"
                        }
                    ]
                },
                "identifier": [
                    {
                        "assigner": {
                            "identifier": {
                                "system": "https://fhir.nhs.uk/Id/ods-organization-code",
                                "value": "699X0"
                            }
                        },
                        "system": "https://fhir.nwgenomics.nhs.uk/iGene/ReportIdentifier",
                        "type": {
                            "coding": [
                                {
                                    "code": "FILL",
                                    "system": "http://terminology.hl7.org/CodeSystem/v2-0203"
                                }
                            ]
                        },
                        "value": "Gen825750"
                    }
                ],
                "performer": [
                    {
                        "identifier": {
                            "system": "https://fhir.nhs.uk/Id/ods-organization-code",
                            "value": "699X0"
                        },
                        "type": "Organization"
                    }
                ],
                "status": "final",
                "subject": {
                    "identifier": {
                        "system": "https://fhir.nhs.uk/Id/nhs-number",
                        "type": {
                            "coding": [
                                {
                                    "code": "NH",
                                    "system": "http://terminology.hl7.org/CodeSystem/v2-0203"
                                }
                            ]
                        },
                        "value": "9737383214"
                    },
                    "reference": "urn:uuid:23257de2-6799-47e2-894e-3a3b0f2e1dd2"
                },
                "valueQuantity": {
                    "system": "http://unitsofmeasure.org",
                    "unit": "Attributes of Discrete Genetic Variants: Report Section 2",
                    "value": 147
                }
            }
        },
        {
            "fullUrl": "urn:uuid:544cffd6-1ae8-4e40-a579-ef47fe279039",
            "resource": {
                "resourceType": "Observation",
                "code": {
                    "coding": [
                        {
                            "code": "83005-9",
                            "display": "Variant Category",
                            "system": "http://loinc.org"
                        }
                    ]
                },
                "identifier": [
                    {
                        "assigner": {
                            "identifier": {
                                "system": "https://fhir.nhs.uk/Id/ods-organization-code",
                                "value": "699X0"
                            }
                        },
                        "system": "https://fhir.nwgenomics.nhs.uk/iGene/ReportIdentifier",
                        "type": {
                            "coding": [
                                {
                                    "code": "FILL",
                                    "system": "http://terminology.hl7.org/CodeSystem/v2-0203"
                                }
                            ]
                        },
                        "value": "Gen825750"
                    }
                ],
                "performer": [
                    {
                        "identifier": {
                            "system": "https://fhir.nhs.uk/Id/ods-organization-code",
                            "value": "699X0"
                        },
                        "type": "Organization"
                    }
                ],
                "status": "final",
                "subject": {
                    "identifier": {
                        "system": "https://fhir.nhs.uk/Id/nhs-number",
                        "type": {
                            "coding": [
                                {
                                    "code": "NH",
                                    "system": "http://terminology.hl7.org/CodeSystem/v2-0203"
                                }
                            ]
                        },
                        "value": "9737383214"
                    },
                    "reference": "urn:uuid:23257de2-6799-47e2-894e-3a3b0f2e1dd2"
                },
                "valueCodeableConcept": {
                    "coding": [
                        {
                            "code": "LA26801-3",
                            "display": "Simple Variant",
                            "system": "http://loinc.org"
                        }
                    ]
                }
            }
        },
        {
            "fullUrl": "urn:uuid:1bdc6d52-8741-4e8d-aef1-d63025988687",
            "resource": {
                "resourceType": "Observation",
                "code": {
                    "coding": [
                        {
                            "code": "81252-9",
                            "display": "Discrete genetic variant",
                            "system": "http://loinc.org"
                        }
                    ]
                },
                "identifier": [
                    {
                        "assigner": {
                            "identifier": {
                                "system": "https://fhir.nhs.uk/Id/ods-organization-code",
                                "value": "699X0"
                            }
                        },
                        "system": "https://fhir.nwgenomics.nhs.uk/iGene/ReportIdentifier",
                        "type": {
                            "coding": [
                                {
                                    "code": "FILL",
                                    "system": "http://terminology.hl7.org/CodeSystem/v2-0203"
                                }
                            ]
                        },
                        "value": "Gen825750"
                    }
                ],
                "performer": [
                    {
                        "identifier": {
                            "system": "https://fhir.nhs.uk/Id/ods-organization-code",
                            "value": "699X0"
                        },
                        "type": "Organization"
                    }
                ],
                "status": "final",
                "subject": {
                    "identifier": {
                        "system": "https://fhir.nhs.uk/Id/nhs-number",
                        "type": {
                            "coding": [
                                {
                                    "code": "NH",
                                    "system": "http://terminology.hl7.org/CodeSystem/v2-0203"
                                }
                            ]
                        },
                        "value": "9737383214"
                    },
                    "reference": "urn:uuid:23257de2-6799-47e2-894e-3a3b0f2e1dd2"
                },
                "valueCodeableConcept": {
                    "coding": [
                        {
                            "code": "7105",
                            "display": "NM_000492.3(CFTR):c.1521_1523delCTT (p.Phe508delPhe)",
                            "system": "http://www.ncbi.nlm.nih.gov/clinvar"
                        }
                    ]
                }
            }
        },
        {
            "fullUrl": "urn:uuid:230a34ef-7750-4ae2-a7e0-cf9c0a5219d8",
            "resource": {
                "resourceType": "Observation",
                "code": {
                    "coding": [
                        {
                            "code": "48018-6",
                            "display": "Gene studied",
                            "system": "http://loinc.org"
                        }
                    ]
                },
                "identifier": [
                    {
                        "assigner": {
                            "identifier": {
                                "system": "https://fhir.nhs.uk/Id/ods-organization-code",
                                "value": "699X0"
                            }
                        },
                        "system": "https://fhir.nwgenomics.nhs.uk/iGene/ReportIdentifier",
                        "type": {
                            "coding": [
                                {
                                    "code": "FILL",
                                    "system": "http://terminology.hl7.org/CodeSystem/v2-0203"
                                }
                            ]
                        },
                        "value": "Gen825750"
                    }
                ],
                "performer": [
                    {
                        "identifier": {
                            "system": "https://fhir.nhs.uk/Id/ods-organization-code",
                            "value": "699X0"
                        },
                        "type": "Organization"
                    }
                ],
                "status": "final",
                "subject": {
                    "identifier": {
                        "system": "https://fhir.nhs.uk/Id/nhs-number",
                        "type": {
                            "coding": [
                                {
                                    "code": "NH",
                                    "system": "http://terminology.hl7.org/CodeSystem/v2-0203"
                                }
                            ]
                        },
                        "value": "9737383214"
                    },
                    "reference": "urn:uuid:23257de2-6799-47e2-894e-3a3b0f2e1dd2"
                },
                "valueCodeableConcept": {
                    "coding": [
                        {
                            "code": "1884",
                            "display": "CFTR",
                            "system": "http://www.genenames.org"
                        }
                    ]
                }
            }
        },
        {
            "fullUrl": "urn:uuid:d3857ac9-f946-4615-b086-b6f228621d8d",
            "resource": {
                "resourceType": "Observation",
                "code": {
                    "coding": [
                        {
                            "code": "51958-7",
                            "display": "Transcript RefSeq ID",
                            "system": "http://loinc.org"
                        }
                    ]
                },
                "identifier": [
                    {
                        "assigner": {
                            "identifier": {
                                "system": "https://fhir.nhs.uk/Id/ods-organization-code",
                                "value": "699X0"
                            }
                        },
                        "system": "https://fhir.nwgenomics.nhs.uk/iGene/ReportIdentifier",
                        "type": {
                            "coding": [
                                {
                                    "code": "FILL",
                                    "system": "http://terminology.hl7.org/CodeSystem/v2-0203"
                                }
                            ]
                        },
                        "value": "Gen825750"
                    }
                ],
                "performer": [
                    {
                        "identifier": {
                            "system": "https://fhir.nhs.uk/Id/ods-organization-code",
                            "value": "699X0"
                        },
                        "type": "Organization"
                    }
                ],
                "status": "final",
                "subject": {
                    "identifier": {
                        "system": "https://fhir.nhs.uk/Id/nhs-number",
                        "type": {
                            "coding": [
                                {
                                    "code": "NH",
                                    "system": "http://terminology.hl7.org/CodeSystem/v2-0203"
                                }
                            ]
                        },
                        "value": "9737383214"
                    },
                    "reference": "urn:uuid:23257de2-6799-47e2-894e-3a3b0f2e1dd2"
                },
                "valueCodeableConcept": {
                    "coding": [
                        {
                            "code": "NM_000492.3",
                            "display": "NM_000492.3",
                            "system": "http://www.ncbi.nlm.nih.gov/refseq"
                        }
                    ]
                }
            }
        },
        {
            "fullUrl": "urn:uuid:c3164f11-379f-4963-b604-7c10ae91adfd",
            "resource": {
                "resourceType": "Observation",
                "code": {
                    "coding": [
                        {
                            "code": "41103-3",
                            "display": "Transcript DNA Change (cHGVS)",
                            "system": "http://loinc.org"
                        }
                    ]
                },
                "identifier": [
                    {
                        "assigner": {
                            "identifier": {
                                "system": "https://fhir.nhs.uk/Id/ods-organization-code",
                                "value": "699X0"
                            }
                        },
                        "system": "https://fhir.nwgenomics.nhs.uk/iGene/ReportIdentifier",
                        "type": {
                            "coding": [
                                {
                                    "code": "FILL",
                                    "system": "http://terminology.hl7.org/CodeSystem/v2-0203"
                                }
                            ]
                        },
                        "value": "Gen825750"
                    }
                ],
                "performer": [
                    {
                        "identifier": {
                            "system": "https://fhir.nhs.uk/Id/ods-organization-code",
                            "value": "699X0"
                        },
                        "type": "Organization"
                    }
                ],
                "status": "final",
                "subject": {
                    "identifier": {
                        "system": "https://fhir.nhs.uk/Id/nhs-number",
                        "type": {
                            "coding": [
                                {
                                    "code": "NH",
                                    "system": "http://terminology.hl7.org/CodeSystem/v2-0203"
                                }
                            ]
                        },
                        "value": "9737383214"
                    },
                    "reference": "urn:uuid:23257de2-6799-47e2-894e-3a3b0f2e1dd2"
                },
                "valueCodeableConcept": {
                    "coding": [
                        {
                            "code": "c.1521_1523delCTT",
                            "display": "c.1521_1523delCTT",
                            "system": "http://varnomen.hgvs.org"
                        }
                    ]
                }
            }
        },
        {
            "fullUrl": "urn:uuid:21ac3533-e9e5-439d-b808-26340ae958ec",
            "resource": {
                "resourceType": "Observation",
                "code": {
                    "coding": [
                        {
                            "code": "48005-3",
                            "display": "Amino acid change p.HGVS",
                            "system": "http://loinc.org"
                        }
                    ]
                },
                "identifier": [
                    {
                        "assigner": {
                            "identifier": {
                                "system": "https://fhir.nhs.uk/Id/ods-organization-code",
                                "value": "699X0"
                            }
                        },
                        "system": "https://fhir.nwgenomics.nhs.uk/iGene/ReportIdentifier",
                        "type": {
                            "coding": [
                                {
                                    "code": "FILL",
                                    "system": "http://terminology.hl7.org/CodeSystem/v2-0203"
                                }
                            ]
                        },
                        "value": "Gen825750"
                    }
                ],
                "performer": [
                    {
                        "identifier": {
                            "system": "https://fhir.nhs.uk/Id/ods-organization-code",
                            "value": "699X0"
                        },
                        "type": "Organization"
                    }
                ],
                "status": "final",
                "subject": {
                    "identifier": {
                        "system": "https://fhir.nhs.uk/Id/nhs-number",
                        "type": {
                            "coding": [
                                {
                                    "code": "NH",
                                    "system": "http://terminology.hl7.org/CodeSystem/v2-0203"
                                }
                            ]
                        },
                        "value": "9737383214"
                    },
                    "reference": "urn:uuid:23257de2-6799-47e2-894e-3a3b0f2e1dd2"
                },
                "valueCodeableConcept": {
                    "coding": [
                        {
                            "code": "p.Phe508delPhe",
                            "display": "p.Phe508delPhe",
                            "system": "http://varnomen.hgvs.org"
                        }
                    ]
                }
            }
        },
        {
            "fullUrl": "urn:uuid:9de9d9e6-e82d-4490-9c0f-b13a5e3f40b0",
            "resource": {
                "resourceType": "Observation",
                "code": {
                    "coding": [
                        {
                            "code": "48019-4",
                            "display": "DNA change type",
                            "system": "http://loinc.org"
                        }
                    ]
                },
                "identifier": [
                    {
                        "assigner": {
                            "identifier": {
                                "system": "https://fhir.nhs.uk/Id/ods-organization-code",
                                "value": "699X0"
                            }
                        },
                        "system": "https://fhir.nwgenomics.nhs.uk/iGene/ReportIdentifier",
                        "type": {
                            "coding": [
                                {
                                    "code": "FILL",
                                    "system": "http://terminology.hl7.org/CodeSystem/v2-0203"
                                }
                            ]
                        },
                        "value": "Gen825750"
                    }
                ],
                "performer": [
                    {
                        "identifier": {
                            "system": "https://fhir.nhs.uk/Id/ods-organization-code",
                            "value": "699X0"
                        },
                        "type": "Organization"
                    }
                ],
                "status": "final",
                "subject": {
                    "identifier": {
                        "system": "https://fhir.nhs.uk/Id/nhs-number",
                        "type": {
                            "coding": [
                                {
                                    "code": "NH",
                                    "system": "http://terminology.hl7.org/CodeSystem/v2-0203"
                                }
                            ]
                        },
                        "value": "9737383214"
                    },
                    "reference": "urn:uuid:23257de2-6799-47e2-894e-3a3b0f2e1dd2"
                },
                "valueCodeableConcept": {
                    "coding": [
                        {
                            "code": "LA6692-3l",
                            "display": "deletion",
                            "system": "http://loinc.org"
                        }
                    ]
                }
            }
        },
        {
            "fullUrl": "urn:uuid:ce4d0ad0-2546-4110-b736-65e5f3718e8e",
            "resource": {
                "resourceType": "Observation",
                "code": {
                    "coding": [
                        {
                            "code": "48013-7",
                            "display": "Genomic reference sequence ID",
                            "system": "http://loinc.org"
                        }
                    ]
                },
                "identifier": [
                    {
                        "assigner": {
                            "identifier": {
                                "system": "https://fhir.nhs.uk/Id/ods-organization-code",
                                "value": "699X0"
                            }
                        },
                        "system": "https://fhir.nwgenomics.nhs.uk/iGene/ReportIdentifier",
                        "type": {
                            "coding": [
                                {
                                    "code": "FILL",
                                    "system": "http://terminology.hl7.org/CodeSystem/v2-0203"
                                }
                            ]
                        },
                        "value": "Gen825750"
                    }
                ],
                "performer": [
                    {
                        "identifier": {
                            "system": "https://fhir.nhs.uk/Id/ods-organization-code",
                            "value": "699X0"
                        },
                        "type": "Organization"
                    }
                ],
                "status": "final",
                "subject": {
                    "identifier": {
                        "system": "https://fhir.nhs.uk/Id/nhs-number",
                        "type": {
                            "coding": [
                                {
                                    "code": "NH",
                                    "system": "http://terminology.hl7.org/CodeSystem/v2-0203"
                                }
                            ]
                        },
                        "value": "9737383214"
                    },
                    "reference": "urn:uuid:23257de2-6799-47e2-894e-3a3b0f2e1dd2"
                },
                "valueCodeableConcept": {
                    "coding": [
                        {
                            "code": "NG_016465.4:g.98809_98811delCTT",
                            "display": "NG_016465.4:g.98809_98811delCTT",
                            "system": "http://www.ncbi.nlm.nih.gov/refseq"
                        }
                    ]
                }
            }
        },
        {
            "fullUrl": "urn:uuid:85c50c06-ea5f-4a8b-9bda-52e421217c0e",
            "resource": {
                "resourceType": "Observation",
                "code": {
                    "coding": [
                        {
                            "code": "81290-9",
                            "display": "Genomic DNA change(gHGVS)",
                            "system": "http://loinc.org"
                        }
                    ]
                },
                "identifier": [
                    {
                        "assigner": {
                            "identifier": {
                                "system": "https://fhir.nhs.uk/Id/ods-organization-code",
                                "value": "699X0"
                            }
                        },
                        "system": "https://fhir.nwgenomics.nhs.uk/iGene/ReportIdentifier",
                        "type": {
                            "coding": [
                                {
                                    "code": "FILL",
                                    "system": "http://terminology.hl7.org/CodeSystem/v2-0203"
                                }
                            ]
                        },
                        "value": "Gen825750"
                    }
                ],
                "performer": [
                    {
                        "identifier": {
                            "system": "https://fhir.nhs.uk/Id/ods-organization-code",
                            "value": "699X0"
                        },
                        "type": "Organization"
                    }
                ],
                "status": "final",
                "subject": {
                    "identifier": {
                        "system": "https://fhir.nhs.uk/Id/nhs-number",
                        "type": {
                            "coding": [
                                {
                                    "code": "NH",
                                    "system": "http://terminology.hl7.org/CodeSystem/v2-0203"
                                }
                            ]
                        },
                        "value": "9737383214"
                    },
                    "reference": "urn:uuid:23257de2-6799-47e2-894e-3a3b0f2e1dd2"
                },
                "valueCodeableConcept": {
                    "coding": [
                        {
                            "code": "NC_000007.13",
                            "display": "NC_000007.13",
                            "system": "http://varnomen.hgvs.org"
                        }
                    ]
                }
            }
        },
        {
            "fullUrl": "urn:uuid:a481b5e4-d17b-40ff-8498-16b46b96cd5f",
            "resource": {
                "resourceType": "Observation",
                "code": {
                    "coding": [
                        {
                            "code": "69547-8",
                            "display": "Genomic ref allele",
                            "system": "http://loinc.org"
                        }
                    ]
                },
                "identifier": [
                    {
                        "assigner": {
                            "identifier": {
                                "system": "https://fhir.nhs.uk/Id/ods-organization-code",
                                "value": "699X0"
                            }
                        },
                        "system": "https://fhir.nwgenomics.nhs.uk/iGene/ReportIdentifier",
                        "type": {
                            "coding": [
                                {
                                    "code": "FILL",
                                    "system": "http://terminology.hl7.org/CodeSystem/v2-0203"
                                }
                            ]
                        },
                        "value": "Gen825750"
                    }
                ],
                "performer": [
                    {
                        "identifier": {
                            "system": "https://fhir.nhs.uk/Id/ods-organization-code",
                            "value": "699X0"
                        },
                        "type": "Organization"
                    }
                ],
                "status": "final",
                "subject": {
                    "identifier": {
                        "system": "https://fhir.nhs.uk/Id/nhs-number",
                        "type": {
                            "coding": [
                                {
                                    "code": "NH",
                                    "system": "http://terminology.hl7.org/CodeSystem/v2-0203"
                                }
                            ]
                        },
                        "value": "9737383214"
                    },
                    "reference": "urn:uuid:23257de2-6799-47e2-894e-3a3b0f2e1dd2"
                },
                "valueString": "CTT"
            }
        },
        {
            "fullUrl": "urn:uuid:44ea8b8e-6e18-4e48-b3cc-3cbbbdf9dd0c",
            "resource": {
                "resourceType": "Observation",
                "code": {
                    "coding": [
                        {
                            "code": "81254-5",
                            "display": "Genomic allele start-end",
                            "system": "http://loinc.org"
                        }
                    ]
                },
                "identifier": [
                    {
                        "assigner": {
                            "identifier": {
                                "system": "https://fhir.nhs.uk/Id/ods-organization-code",
                                "value": "699X0"
                            }
                        },
                        "system": "https://fhir.nwgenomics.nhs.uk/iGene/ReportIdentifier",
                        "type": {
                            "coding": [
                                {
                                    "code": "FILL",
                                    "system": "http://terminology.hl7.org/CodeSystem/v2-0203"
                                }
                            ]
                        },
                        "value": "Gen825750"
                    }
                ],
                "performer": [
                    {
                        "identifier": {
                            "system": "https://fhir.nhs.uk/Id/ods-organization-code",
                            "value": "699X0"
                        },
                        "type": "Organization"
                    }
                ],
                "status": "final",
                "subject": {
                    "identifier": {
                        "system": "https://fhir.nhs.uk/Id/nhs-number",
                        "type": {
                            "coding": [
                                {
                                    "code": "NH",
                                    "system": "http://terminology.hl7.org/CodeSystem/v2-0203"
                                }
                            ]
                        },
                        "value": "9737383214"
                    },
                    "reference": "urn:uuid:23257de2-6799-47e2-894e-3a3b0f2e1dd2"
                }
            }
        },
        {
            "fullUrl": "urn:uuid:905db3ce-d572-4aaa-a8e5-c53d1304a63c",
            "resource": {
                "resourceType": "Observation",
                "code": {
                    "coding": [
                        {
                            "code": "69551-0",
                            "display": "Genomic alt allele",
                            "system": "http://loinc.org"
                        }
                    ]
                },
                "identifier": [
                    {
                        "assigner": {
                            "identifier": {
                                "system": "https://fhir.nhs.uk/Id/ods-organization-code",
                                "value": "699X0"
                            }
                        },
                        "system": "https://fhir.nwgenomics.nhs.uk/iGene/ReportIdentifier",
                        "type": {
                            "coding": [
                                {
                                    "code": "FILL",
                                    "system": "http://terminology.hl7.org/CodeSystem/v2-0203"
                                }
                            ]
                        },
                        "value": "Gen825750"
                    }
                ],
                "performer": [
                    {
                        "identifier": {
                            "system": "https://fhir.nhs.uk/Id/ods-organization-code",
                            "value": "699X0"
                        },
                        "type": "Organization"
                    }
                ],
                "status": "final",
                "subject": {
                    "identifier": {
                        "system": "https://fhir.nhs.uk/Id/nhs-number",
                        "type": {
                            "coding": [
                                {
                                    "code": "NH",
                                    "system": "http://terminology.hl7.org/CodeSystem/v2-0203"
                                }
                            ]
                        },
                        "value": "9737383214"
                    },
                    "reference": "urn:uuid:23257de2-6799-47e2-894e-3a3b0f2e1dd2"
                },
                "valueString": "-"
            }
        },
        {
            "fullUrl": "urn:uuid:175a9a02-eccb-4743-a145-b4f024de7ddf",
            "resource": {
                "resourceType": "Observation",
                "code": {
                    "coding": [
                        {
                            "code": "81255-2",
                            "display": "dbSNP ID",
                            "system": "http://loinc.org"
                        }
                    ]
                },
                "identifier": [
                    {
                        "assigner": {
                            "identifier": {
                                "system": "https://fhir.nhs.uk/Id/ods-organization-code",
                                "value": "699X0"
                            }
                        },
                        "system": "https://fhir.nwgenomics.nhs.uk/iGene/ReportIdentifier",
                        "type": {
                            "coding": [
                                {
                                    "code": "FILL",
                                    "system": "http://terminology.hl7.org/CodeSystem/v2-0203"
                                }
                            ]
                        },
                        "value": "Gen825750"
                    }
                ],
                "performer": [
                    {
                        "identifier": {
                            "system": "https://fhir.nhs.uk/Id/ods-organization-code",
                            "value": "699X0"
                        },
                        "type": "Organization"
                    }
                ],
                "status": "final",
                "subject": {
                    "identifier": {
                        "system": "https://fhir.nhs.uk/Id/nhs-number",
                        "type": {
                            "coding": [
                                {
                                    "code": "NH",
                                    "system": "http://terminology.hl7.org/CodeSystem/v2-0203"
                                }
                            ]
                        },
                        "value": "9737383214"
                    },
                    "reference": "urn:uuid:23257de2-6799-47e2-894e-3a3b0f2e1dd2"
                },
                "valueCodeableConcept": {
                    "coding": [
                        {
                            "code": "rs113993960",
                            "display": "rs113993960",
                            "system": "http://www.ncbi.nlm.nih.gov/projects/SNP"
                        }
                    ]
                }
            }
        },
        {
            "fullUrl": "urn:uuid:c3c66003-bcd3-4e47-aafc-62378ca285f6",
            "resource": {
                "resourceType": "Observation",
                "code": {
                    "coding": [
                        {
                            "code": "48001-2",
                            "display": "Cytogenetic (chromosome) location",
                            "system": "http://loinc.org"
                        }
                    ]
                },
                "identifier": [
                    {
                        "assigner": {
                            "identifier": {
                                "system": "https://fhir.nhs.uk/Id/ods-organization-code",
                                "value": "699X0"
                            }
                        },
                        "system": "https://fhir.nwgenomics.nhs.uk/iGene/ReportIdentifier",
                        "type": {
                            "coding": [
                                {
                                    "code": "FILL",
                                    "system": "http://terminology.hl7.org/CodeSystem/v2-0203"
                                }
                            ]
                        },
                        "value": "Gen825750"
                    }
                ],
                "performer": [
                    {
                        "identifier": {
                            "system": "https://fhir.nhs.uk/Id/ods-organization-code",
                            "value": "699X0"
                        },
                        "type": "Organization"
                    }
                ],
                "status": "final",
                "subject": {
                    "identifier": {
                        "system": "https://fhir.nhs.uk/Id/nhs-number",
                        "type": {
                            "coding": [
                                {
                                    "code": "NH",
                                    "system": "http://terminology.hl7.org/CodeSystem/v2-0203"
                                }
                            ]
                        },
                        "value": "9737383214"
                    },
                    "reference": "urn:uuid:23257de2-6799-47e2-894e-3a3b0f2e1dd2"
                },
                "valueCodeableConcept": {
                    "coding": [
                        {
                            "code": "7q31.2",
                            "display": "7q31.2",
                            "system": "Chrom-Loc"
                        }
                    ]
                }
            }
        },
        {
            "fullUrl": "urn:uuid:283b7c80-e06d-4fa9-beeb-54b087bf2cfd",
            "resource": {
                "resourceType": "Observation",
                "code": {
                    "coding": [
                        {
                            "code": "48002-0",
                            "display": "Genomic source class",
                            "system": "http://loinc.org"
                        }
                    ]
                },
                "identifier": [
                    {
                        "assigner": {
                            "identifier": {
                                "system": "https://fhir.nhs.uk/Id/ods-organization-code",
                                "value": "699X0"
                            }
                        },
                        "system": "https://fhir.nwgenomics.nhs.uk/iGene/ReportIdentifier",
                        "type": {
                            "coding": [
                                {
                                    "code": "FILL",
                                    "system": "http://terminology.hl7.org/CodeSystem/v2-0203"
                                }
                            ]
                        },
                        "value": "Gen825750"
                    }
                ],
                "performer": [
                    {
                        "identifier": {
                            "system": "https://fhir.nhs.uk/Id/ods-organization-code",
                            "value": "699X0"
                        },
                        "type": "Organization"
                    }
                ],
                "status": "final",
                "subject": {
                    "identifier": {
                        "system": "https://fhir.nhs.uk/Id/nhs-number",
                        "type": {
                            "coding": [
                                {
                                    "code": "NH",
                                    "system": "http://terminology.hl7.org/CodeSystem/v2-0203"
                                }
                            ]
                        },
                        "value": "9737383214"
                    },
                    "reference": "urn:uuid:23257de2-6799-47e2-894e-3a3b0f2e1dd2"
                },
                "valueCodeableConcept": {
                    "coding": [
                        {
                            "code": "LA6683-2",
                            "display": "Germline",
                            "system": "http://loinc.org"
                        }
                    ]
                }
            }
        },
        {
            "fullUrl": "urn:uuid:07f8be0c-d7f0-4b14-b802-d729e30de03e",
            "resource": {
                "resourceType": "Observation",
                "code": {
                    "coding": [
                        {
                            "code": "53037-8",
                            "display": "Genetic variation Clinical significance",
                            "system": "http://loinc.org"
                        }
                    ]
                },
                "identifier": [
                    {
                        "assigner": {
                            "identifier": {
                                "system": "https://fhir.nhs.uk/Id/ods-organization-code",
                                "value": "699X0"
                            }
                        },
                        "system": "https://fhir.nwgenomics.nhs.uk/iGene/ReportIdentifier",
                        "type": {
                            "coding": [
                                {
                                    "code": "FILL",
                                    "system": "http://terminology.hl7.org/CodeSystem/v2-0203"
                                }
                            ]
                        },
                        "value": "Gen825750"
                    }
                ],
                "performer": [
                    {
                        "identifier": {
                            "system": "https://fhir.nhs.uk/Id/ods-organization-code",
                            "value": "699X0"
                        },
                        "type": "Organization"
                    }
                ],
                "status": "final",
                "subject": {
                    "identifier": {
                        "system": "https://fhir.nhs.uk/Id/nhs-number",
                        "type": {
                            "coding": [
                                {
                                    "code": "NH",
                                    "system": "http://terminology.hl7.org/CodeSystem/v2-0203"
                                }
                            ]
                        },
                        "value": "9737383214"
                    },
                    "reference": "urn:uuid:23257de2-6799-47e2-894e-3a3b0f2e1dd2"
                },
                "valueCodeableConcept": {
                    "coding": [
                        {
                            "code": "LA6668-3",
                            "display": "Pathogenic",
                            "system": "http://loinc.org"
                        }
                    ]
                }
            }
        },
        {
            "fullUrl": "urn:uuid:fe92163a-8b9b-427c-a233-2d57c61c5fa2",
            "resource": {
                "resourceType": "Observation",
                "code": {
                    "coding": [
                        {
                            "code": "69548-6",
                            "display": "Genomic variant assessment",
                            "system": "http://loinc.org"
                        }
                    ]
                },
                "identifier": [
                    {
                        "assigner": {
                            "identifier": {
                                "system": "https://fhir.nhs.uk/Id/ods-organization-code",
                                "value": "699X0"
                            }
                        },
                        "system": "https://fhir.nwgenomics.nhs.uk/iGene/ReportIdentifier",
                        "type": {
                            "coding": [
                                {
                                    "code": "FILL",
                                    "system": "http://terminology.hl7.org/CodeSystem/v2-0203"
                                }
                            ]
                        },
                        "value": "Gen825750"
                    }
                ],
                "performer": [
                    {
                        "identifier": {
                            "system": "https://fhir.nhs.uk/Id/ods-organization-code",
                            "value": "699X0"
                        },
                        "type": "Organization"
                    }
                ],
                "status": "final",
                "subject": {
                    "identifier": {
                        "system": "https://fhir.nhs.uk/Id/nhs-number",
                        "type": {
                            "coding": [
                                {
                                    "code": "NH",
                                    "system": "http://terminology.hl7.org/CodeSystem/v2-0203"
                                }
                            ]
                        },
                        "value": "9737383214"
                    },
                    "reference": "urn:uuid:23257de2-6799-47e2-894e-3a3b0f2e1dd2"
                },
                "valueCodeableConcept": {
                    "coding": [
                        {
                            "code": "LA9633-4",
                            "display": "Present",
                            "system": "http://loinc.org"
                        }
                    ]
                }
            }
        },
        {
            "fullUrl": "urn:uuid:1565d7ac-af9c-4625-8b41-3b8cebb4ff61",
            "resource": {
                "resourceType": "Observation",
                "code": {
                    "coding": [
                        {
                            "code": "81259-4",
                            "display": "Probable associated phenotype",
                            "system": "http://loinc.org"
                        }
                    ]
                },
                "identifier": [
                    {
                        "assigner": {
                            "identifier": {
                                "system": "https://fhir.nhs.uk/Id/ods-organization-code",
                                "value": "699X0"
                            }
                        },
                        "system": "https://fhir.nwgenomics.nhs.uk/iGene/ReportIdentifier",
                        "type": {
                            "coding": [
                                {
                                    "code": "FILL",
                                    "system": "http://terminology.hl7.org/CodeSystem/v2-0203"
                                }
                            ]
                        },
                        "value": "Gen825750"
                    }
                ],
                "performer": [
                    {
                        "identifier": {
                            "system": "https://fhir.nhs.uk/Id/ods-organization-code",
                            "value": "699X0"
                        },
                        "type": "Organization"
                    }
                ],
                "status": "final",
                "subject": {
                    "identifier": {
                        "system": "https://fhir.nhs.uk/Id/nhs-number",
                        "type": {
                            "coding": [
                                {
                                    "code": "NH",
                                    "system": "http://terminology.hl7.org/CodeSystem/v2-0203"
                                }
                            ]
                        },
                        "value": "9737383214"
                    },
                    "reference": "urn:uuid:23257de2-6799-47e2-894e-3a3b0f2e1dd2"
                },
                "valueCodeableConcept": {
                    "coding": [
                        {
                            "code": "C0010674",
                            "display": "Cystic fibrosis",
                            "system": "MedGen-Dis"
                        }
                    ]
                }
            }
        },
        {
            "fullUrl": "urn:uuid:953ad48d-1946-4bd7-a84e-9c1b10a3dec2",
            "resource": {
                "resourceType": "Observation",
                "code": {
                    "coding": [
                        {
                            "code": "53034-5",
                            "display": "Allelic state",
                            "system": "http://loinc.org"
                        }
                    ]
                },
                "identifier": [
                    {
                        "assigner": {
                            "identifier": {
                                "system": "https://fhir.nhs.uk/Id/ods-organization-code",
                                "value": "699X0"
                            }
                        },
                        "system": "https://fhir.nwgenomics.nhs.uk/iGene/ReportIdentifier",
                        "type": {
                            "coding": [
                                {
                                    "code": "FILL",
                                    "system": "http://terminology.hl7.org/CodeSystem/v2-0203"
                                }
                            ]
                        },
                        "value": "Gen825750"
                    }
                ],
                "performer": [
                    {
                        "identifier": {
                            "system": "https://fhir.nhs.uk/Id/ods-organization-code",
                            "value": "699X0"
                        },
                        "type": "Organization"
                    }
                ],
                "status": "final",
                "subject": {
                    "identifier": {
                        "system": "https://fhir.nhs.uk/Id/nhs-number",
                        "type": {
                            "coding": [
                                {
                                    "code": "NH",
                                    "system": "http://terminology.hl7.org/CodeSystem/v2-0203"
                                }
                            ]
                        },
                        "value": "9737383214"
                    },
                    "reference": "urn:uuid:23257de2-6799-47e2-894e-3a3b0f2e1dd2"
                },
                "valueCodeableConcept": {
                    "coding": [
                        {
                            "code": "LA6706-1",
                            "display": "Heterozygous",
                            "system": "http://loinc.org"
                        }
                    ]
                }
            }
        },
        {
            "fullUrl": "urn:uuid:da4e097c-224d-4703-a650-66a7b6e1e5ce",
            "resource": {
                "resourceType": "ServiceRequest",
                "authoredOn": "2016-08-03",
                "category": [
                    {
                        "coding": [
                            {
                                "code": "116148004",
                                "system": "http://snomed.info/sct"
                            }
                        ]
                    }
                ],
                "code": {
                    "coding": [
                        {
                            "code": "38404-0",
                            "display": "CFTR gene targeted mutation analysis in Blood or Tissue by Molecular genetics method Narrative",
                            "system": "http://loinc.org"
                        }
                    ]
                },
                "identifier": [
                    {
                        "assigner": {
                            "identifier": {
                                "system": "https://fhir.nhs.uk/Id/ods-organization-code",
                                "value": "RBS"
                            }
                        },
                        "type": {
                            "coding": [
                                {
                                    "code": "PLAC",
                                    "system": "http://terminology.hl7.org/CodeSystem/v2-0203"
                                }
                            ]
                        },
                        "value": "LRI-1000152867"
                    }
                ],
                "intent": "order",
                "requester": {
                    "display": "Alder Hey",
                    "identifier": {
                        "system": "https://fhir.nhs.uk/Id/ods-organization-code",
                        "value": "RBS"
                    },
                    "type": "Organization"
                },
                "status": "active",
                "subject": {
                    "identifier": {
                        "system": "https://fhir.nhs.uk/Id/nhs-number",
                        "type": {
                            "coding": [
                                {
                                    "code": "NH",
                                    "system": "http://terminology.hl7.org/CodeSystem/v2-0203"
                                }
                            ]
                        },
                        "value": "9737383214"
                    },
                    "reference": "urn:uuid:23257de2-6799-47e2-894e-3a3b0f2e1dd2"
                }
            }
        },
        {
            "fullUrl": "urn:uuid:ce7f04af-683d-41bd-a7db-cf7337f7a074",
            "resource": {
                "resourceType": "DiagnosticReport",
                "basedOn": [
                    {
                        "identifier": {
                            "assigner": {
                                "identifier": {
                                    "system": "https://fhir.nhs.uk/Id/ods-organization-code",
                                    "value": "RBS"
                                }
                            },
                            "type": {
                                "coding": [
                                    {
                                        "code": "PLAC",
                                        "system": "http://terminology.hl7.org/CodeSystem/v2-0203"
                                    }
                                ]
                            },
                            "value": "LRI-1000152867"
                        },
                        "reference": "urn:uuid:da4e097c-224d-4703-a650-66a7b6e1e5ce",
                        "type": "ServiceRequest"
                    }
                ],
                "category": [
                    {
                        "coding": [
                            {
                                "code": "GE",
                                "system": "http://terminology.hl7.org/CodeSystem/v2-0074"
                            }
                        ]
                    }
                ],
                "code": {
                    "coding": [
                        {
                            "code": "38404-0",
                            "display": "CFTR gene targeted mutation analysis in Blood or Tissue by Molecular genetics method Narrative",
                            "system": "http://loinc.org"
                        }
                    ]
                },
                "effectiveDateTime": "2016-08-09T16:50:00+00:00",
                "extension": [
                    {
                        "extension": [
                            {
                                "url": "reference",
                                "valueReference": {
                                    "display": "Genetic report",
                                    "reference": "urn:uuid:d9b3a0d8-8089-46e8-83ee-b73519a7a5be",
                                    "type": "DocumentReference"
                                }
                            },
                            {
                                "url": "type",
                                "valueCodeableConcept": {
                                    "coding": [
                                        {
                                            "code": "SCI",
                                            "system": "http://hl7.org/fhir/diagnosticreport-relevant-information-types"
                                        }
                                    ]
                                }
                            }
                        ],
                        "url": "http://hl7.org/fhir/5.0/StructureDefinition/extension-DiagnosticReport.supportingInfo"
                    }
                ],
                "identifier": [
                    {
                        "assigner": {
                            "identifier": {
                                "system": "https://fhir.nhs.uk/Id/ods-organization-code",
                                "value": "699X0"
                            }
                        },
                        "system": "https://fhir.nwgenomics.nhs.uk/iGene/ReportIdentifier",
                        "type": {
                            "coding": [
                                {
                                    "code": "FILL",
                                    "system": "http://terminology.hl7.org/CodeSystem/v2-0203"
                                }
                            ]
                        },
                        "value": "Gen825750"
                    }
                ],
                "performer": [
                    {
                        "display": "NHS North West Genomics",
                        "identifier": {
                            "system": "https://fhir.nhs.uk/Id/ods-organization-code",
                            "value": "699X0"
                        },
                        "type": "Organization"
                    }
                ],
                "presentedForm": [
                    {
                        "contentType": "application/pdf",
                        "url": "urn:uuid:e673d12b-f649-45de-9f88-0d6f90dfb1f7"
                    }
                ],
                "result": [
                    {
                        "display": "Reason for study",
                        "reference": "urn:uuid:e20384c5-7f63-410a-9643-1f89285a5d55",
                        "type": "Observation"
                    },
                    {
                        "display": "Genetic disease(s) assessed",
                        "reference": "urn:uuid:06a3f568-b649-402b-a9e0-250b33fda2e8",
                        "type": "Observation"
                    },
                    {
                        "display": "Transcript reference sequence [Identifier]",
                        "reference": "urn:uuid:269831cb-8edd-4c5a-a1a8-c29837fbbe92",
                        "type": "Observation"
                    },
                    {
                        "display": "Gene studied",
                        "reference": "urn:uuid:f02800d3-ab4e-4521-82ae-914d66de70df",
                        "type": "Observation"
                    },
                    {
                        "display": "Gene mutations tested",
                        "reference": "urn:uuid:3baeba4a-4883-4a33-8a2a-b25f040a93a7",
                        "type": "Observation"
                    },
                    {
                        "display": "Gene mutations tested",
                        "reference": "urn:uuid:706cef76-987a-4b05-812c-86cb7783a0ad",
                        "type": "Observation"
                    },
                    {
                        "display": "Gene mutations tested",
                        "reference": "urn:uuid:2483b21d-6863-43da-9e9d-0e960ff87d58",
                        "type": "Observation"
                    },
                    {
                        "display": "Gene mutations tested",
                        "reference": "urn:uuid:944c5385-f0c4-4cde-8d48-bbf2c3a01a8d",
                        "type": "Observation"
                    },
                    {
                        "display": "Gene mutations tested",
                        "reference": "urn:uuid:3249d847-f24c-4c88-9774-a9c8a9d699b6",
                        "type": "Observation"
                    },
                    {
                        "display": "Gene mutations tested",
                        "reference": "urn:uuid:849f608d-22b9-4798-a9fd-474fbc82de9c",
                        "type": "Observation"
                    },
                    {
                        "display": "Gene mutations tested",
                        "reference": "urn:uuid:c4cc3e55-0966-4833-ae04-76dc01e39ecc",
                        "type": "Observation"
                    },
                    {
                        "display": "Gene mutations tested",
                        "reference": "urn:uuid:6f2b470b-57ff-4666-b7a7-f18c3d16dc94",
                        "type": "Observation"
                    },
                    {
                        "display": "Gene mutations tested",
                        "reference": "urn:uuid:bd41afec-21a5-477a-a395-4e6f6b6c58c7",
                        "type": "Observation"
                    },
                    {
                        "display": "Gene mutations tested",
                        "reference": "urn:uuid:739d6cb4-a542-4acb-a9db-b85a73b2b6fa",
                        "type": "Observation"
                    },
                    {
                        "display": "Gene mutations tested",
                        "reference": "urn:uuid:14d17668-0844-4411-95d0-162f7068e732",
                        "type": "Observation"
                    },
                    {
                        "display": "Discrete variation analysis overall interpretation",
                        "reference": "urn:uuid:4072e30c-6978-4d32-84cf-f6f420569b1b",
                        "type": "Observation"
                    },
                    {
                        "display": "Human reference sequence assembly",
                        "reference": "urn:uuid:30436d1b-63ee-4127-bbe5-7a203a35becf",
                        "type": "Observation"
                    },
                    {
                        "display": "dbSNP version",
                        "reference": "urn:uuid:4d1b0c19-5110-4ea2-b6a9-d2d8174f85d6",
                        "type": "Observation"
                    },
                    {
                        "display": "Variant Category",
                        "reference": "urn:uuid:544cffd6-1ae8-4e40-a579-ef47fe279039",
                        "type": "Observation"
                    },
                    {
                        "display": "Discrete genetic variant",
                        "reference": "urn:uuid:1bdc6d52-8741-4e8d-aef1-d63025988687",
                        "type": "Observation"
                    },
                    {
                        "display": "Gene studied",
                        "reference": "urn:uuid:230a34ef-7750-4ae2-a7e0-cf9c0a5219d8",
                        "type": "Observation"
                    },
                    {
                        "display": "Transcript RefSeq ID",
                        "reference": "urn:uuid:d3857ac9-f946-4615-b086-b6f228621d8d",
                        "type": "Observation"
                    },
                    {
                        "display": "Transcript DNA Change (cHGVS)",
                        "reference": "urn:uuid:c3164f11-379f-4963-b604-7c10ae91adfd",
                        "type": "Observation"
                    },
                    {
                        "display": "Amino acid change p.HGVS",
                        "reference": "urn:uuid:21ac3533-e9e5-439d-b808-26340ae958ec",
                        "type": "Observation"
                    },
                    {
                        "display": "DNA change type",
                        "reference": "urn:uuid:9de9d9e6-e82d-4490-9c0f-b13a5e3f40b0",
                        "type": "Observation"
                    },
                    {
                        "display": "Genomic reference sequence ID",
                        "reference": "urn:uuid:ce4d0ad0-2546-4110-b736-65e5f3718e8e",
                        "type": "Observation"
                    },
                    {
                        "display": "Genomic DNA change(gHGVS)",
                        "reference": "urn:uuid:85c50c06-ea5f-4a8b-9bda-52e421217c0e",
                        "type": "Observation"
                    },
                    {
                        "display": "Genomic ref allele",
                        "reference": "urn:uuid:a481b5e4-d17b-40ff-8498-16b46b96cd5f",
                        "type": "Observation"
                    },
                    {
                        "display": "Genomic allele start-end",
                        "reference": "urn:uuid:44ea8b8e-6e18-4e48-b3cc-3cbbbdf9dd0c",
                        "type": "Observation"
                    },
                    {
                        "display": "Genomic alt allele",
                        "reference": "urn:uuid:905db3ce-d572-4aaa-a8e5-c53d1304a63c",
                        "type": "Observation"
                    },
                    {
                        "display": "dbSNP ID",
                        "reference": "urn:uuid:175a9a02-eccb-4743-a145-b4f024de7ddf",
                        "type": "Observation"
                    },
                    {
                        "display": "Cytogenetic (chromosome) location",
                        "reference": "urn:uuid:c3c66003-bcd3-4e47-aafc-62378ca285f6",
                        "type": "Observation"
                    },
                    {
                        "display": "Genomic source class",
                        "reference": "urn:uuid:283b7c80-e06d-4fa9-beeb-54b087bf2cfd",
                        "type": "Observation"
                    },
                    {
                        "display": "Genetic variation Clinical significance",
                        "reference": "urn:uuid:07f8be0c-d7f0-4b14-b802-d729e30de03e",
                        "type": "Observation"
                    },
                    {
                        "display": "Genomic variant assessment",
                        "reference": "urn:uuid:fe92163a-8b9b-427c-a233-2d57c61c5fa2",
                        "type": "Observation"
                    },
                    {
                        "display": "Probable associated phenotype",
                        "reference": "urn:uuid:1565d7ac-af9c-4625-8b41-3b8cebb4ff61",
                        "type": "Observation"
                    },
                    {
                        "display": "Allelic state",
                        "reference": "urn:uuid:953ad48d-1946-4bd7-a84e-9c1b10a3dec2",
                        "type": "Observation"
                    }
                ],
                "status": "unknown",
                "subject": {
                    "identifier": {
                        "system": "https://fhir.nhs.uk/Id/nhs-number",
                        "type": {
                            "coding": [
                                {
                                    "code": "NH",
                                    "system": "http://terminology.hl7.org/CodeSystem/v2-0203"
                                }
                            ]
                        },
                        "value": "9737383214"
                    },
                    "reference": "urn:uuid:23257de2-6799-47e2-894e-3a3b0f2e1dd2"
                }
            }
        }
    ],
    "identifier": {
        "value": "ORIE-251014-9"
    },
    "timestamp": "2025-10-14T15:59:42+00:00",
    "type": "message"
}