{
    "resourceType": "Bundle",
    "entry": [
        {
            "fullUrl": "urn:uuid:a22e7057-ab60-43be-afe4-beee4d7d3d1c",
            "resource": {
                "resourceType": "MessageHeader",
                "destination": [
                    {
                        "endpoint": "https//fhir.mft.nhs.uk/Endpoint/EPIC",
                        "receiver": {
                            "identifier": {
                                "system": "https://fhir.nhs.uk/Id/ods-organization-code",
                                "value": "699X0"
                            }
                        }
                    }
                ],
                "eventCoding": {
                    "code": "T02",
                    "system": "http://terminology.hl7.org/CodeSystem/v2-0003"
                },
                "focus": [
                    {
                        "reference": "urn:uuid:3e39973b-c50e-4cfd-aaba-7532e0b955dc"
                    }
                ],
                "sender": {
                    "identifier": {
                        "system": "https://fhir.nhs.uk/Id/ods-organization-code",
                        "value": "699X0"
                    }
                },
                "source": {
                    "endpoint": "https://fhir.nwgenomics.nhs.uk/Endpoint/IGENE",
                    "software": "NW GLH"
                }
            }
        },
        {
            "fullUrl": "urn:uuid:4ff6c149-0ebd-493e-8e6c-abfd5adf776d",
            "resource": {
                "resourceType": "Patient",
                "birthDate": "1987-02-18",
                "gender": "unknown",
                "identifier": [
                    {
                        "system": "https://fhir.nhs.uk/Id/hsc-number",
                        "type": {
                            "coding": [
                                {
                                    "code": "NH",
                                    "system": "http://terminology.hl7.org/CodeSystem/v2-0203"
                                }
                            ]
                        },
                        "value": "3200000000"
                    }
                ],
                "name": [
                    {
                        "family": "EDITESTPATIENT",
                        "given": [
                            "THREE"
                        ]
                    }
                ]
            }
        },
        {
            "fullUrl": "urn:uuid:e31aea32-7148-45b6-a50f-eaea211697ca",
            "resource": {
                "resourceType": "DocumentReference",
                "context": {
                    "period": {
                        "end": "2025-10-14T15:59:16+00:00",
                        "start": "2025-10-14T15:59:16+00:00"
                    },
                    "related": [
                        {
                            "identifier": {
                                "assigner": {
                                    "identifier": {
                                        "system": "https://fhir.nhs.uk/Id/ods-organization-code",
                                        "value": "ZT001"
                                    }
                                },
                                "type": {
                                    "coding": [
                                        {
                                            "code": "PLAC",
                                            "system": "http://terminology.hl7.org/CodeSystem/v2-0203"
                                        }
                                    ]
                                },
                                "value": "1000152876"
                            },
                            "reference": "urn:uuid:570f636d-b156-4099-b4a0-463e97bf7d21",
                            "type": "ServiceRequest"
                        },
                        {
                            "identifier": {
                                "assigner": {
                                    "identifier": {
                                        "system": "https://fhir.nhs.uk/Id/ods-organization-code",
                                        "value": "699X0"
                                    }
                                },
                                "system": "https://fhir.nwgenomics.nhs.uk/iGene/ReportIdentifier",
                                "type": {
                                    "coding": [
                                        {
                                            "code": "FILL",
                                            "system": "http://terminology.hl7.org/CodeSystem/v2-0203"
                                        }
                                    ]
                                },
                                "value": "T25-0213"
                            },
                            "reference": "urn:uuid:3e39973b-c50e-4cfd-aaba-7532e0b955dc",
                            "type": "DiagnosticReport"
                        }
                    ]
                },
                "custodian": {
                    "identifier": {
                        "system": "https://fhir.nhs.uk/Id/ods-organization-code",
                        "value": "699X0"
                    },
                    "type": "Organization"
                },
                "date": "2025-10-14T15:59:16+00:00",
                "identifier": [
                    {
                        "assigner": {
                            "identifier": {
                                "system": "https://fhir.nhs.uk/Id/ods-organization-code",
                                "value": "699X0"
                            }
                        },
                        "system": "https://fhir.nwgenomics.nhs.uk/iGene/ReportIdentifier",
                        "type": {
                            "coding": [
                                {
                                    "code": "FILL",
                                    "system": "http://terminology.hl7.org/CodeSystem/v2-0203"
                                }
                            ]
                        },
                        "value": "T25-0213"
                    }
                ],
                "status": "current",
                "subject": {
                    "identifier": {
                        "system": "https://fhir.nhs.uk/Id/hsc-number",
                        "type": {
                            "coding": [
                                {
                                    "code": "NH",
                                    "system": "http://terminology.hl7.org/CodeSystem/v2-0203"
                                }
                            ]
                        },
                        "value": "3200000000"
                    },
                    "reference": "urn:uuid:4ff6c149-0ebd-493e-8e6c-abfd5adf776d"
                },
                "type": {
                    "coding": [
                        {
                            "code": "1054161000000101",
                            "display": "Genetic report",
                            "system": "http://snomed.info/sct"
                        }
                    ]
                }
            }
        },
        {
            "fullUrl": "urn:uuid:091cc6b3-8e4f-4bdc-8901-caa14824a0b9",
            "resource": {
                "resourceType": "Specimen",
                "identifier": [
                    {
                        "type": {
                            "coding": [
                                {
                                    "code": "PLAC",
                                    "system": "http://terminology.hl7.org/CodeSystem/v2-0203"
                                }
                            ]
                        },
                        "value": "T25-0213"
                    }
                ],
                "receivedTime": "2025-10-06T00:00:00+00:00",
                "status": "unavailable",
                "subject": {
                    "identifier": {
                        "system": "https://fhir.nhs.uk/Id/hsc-number",
                        "type": {
                            "coding": [
                                {
                                    "code": "NH",
                                    "system": "http://terminology.hl7.org/CodeSystem/v2-0203"
                                }
                            ]
                        },
                        "value": "3200000000"
                    },
                    "reference": "urn:uuid:4ff6c149-0ebd-493e-8e6c-abfd5adf776d"
                }
            }
        },
        {
            "fullUrl": "urn:uuid:570f636d-b156-4099-b4a0-463e97bf7d21",
            "resource": {
                "resourceType": "ServiceRequest",
                "category": [
                    {
                        "coding": [
                            {
                                "code": "116148004",
                                "system": "http://snomed.info/sct"
                            }
                        ]
                    }
                ],
                "code": {
                    "coding": [
                        {
                            "code": "R125.1",
                            "display": "Thoracic aortic aneurysm or dissection (WES or Medium Panel)",
                            "system": "https://fhir.nhs.uk/CodeSystem/England-GenomicTestDirectory"
                        }
                    ]
                },
                "identifier": [
                    {
                        "assigner": {
                            "identifier": {
                                "system": "https://fhir.nhs.uk/Id/ods-organization-code",
                                "value": "ZT001"
                            }
                        },
                        "type": {
                            "coding": [
                                {
                                    "code": "PLAC",
                                    "system": "http://terminology.hl7.org/CodeSystem/v2-0203"
                                }
                            ]
                        },
                        "value": "1000152876"
                    }
                ],
                "intent": "order",
                "reasonCode": [
                    {
                        "coding": [
                            {
                                "code": "R125",
                                "system": "https://fhir.nwgenomics.nhs.uk/CodeSystem/GenomicClinicalIndication"
                            }
                        ]
                    }
                ],
                "requester": {
                    "display": "Belfast Health and Social Care Trust",
                    "identifier": {
                        "system": "https://fhir.nhs.uk/Id/ods-organization-code",
                        "value": "ZT001"
                    },
                    "type": "Organization"
                },
                "specimen": [
                    {
                        "reference": "urn:uuid:091cc6b3-8e4f-4bdc-8901-caa14824a0b9",
                        "type": "Specimen"
                    }
                ],
                "status": "completed",
                "subject": {
                    "identifier": {
                        "system": "https://fhir.nhs.uk/Id/hsc-number",
                        "type": {
                            "coding": [
                                {
                                    "code": "NH",
                                    "system": "http://terminology.hl7.org/CodeSystem/v2-0203"
                                }
                            ]
                        },
                        "value": "3200000000"
                    },
                    "reference": "urn:uuid:4ff6c149-0ebd-493e-8e6c-abfd5adf776d"
                }
            }
        },
        {
            "fullUrl": "urn:uuid:3e39973b-c50e-4cfd-aaba-7532e0b955dc",
            "resource": {
                "resourceType": "DiagnosticReport",
                "basedOn": [
                    {
                        "identifier": {
                            "assigner": {
                                "identifier": {
                                    "system": "https://fhir.nhs.uk/Id/ods-organization-code",
                                    "value": "ZT001"
                                }
                            },
                            "type": {
                                "coding": [
                                    {
                                        "code": "PLAC",
                                        "system": "http://terminology.hl7.org/CodeSystem/v2-0203"
                                    }
                                ]
                            },
                            "value": "1000152876"
                        },
                        "reference": "urn:uuid:570f636d-b156-4099-b4a0-463e97bf7d21",
                        "type": "ServiceRequest"
                    }
                ],
                "category": [
                    {
                        "coding": [
                            {
                                "code": "GE",
                                "system": "http://terminology.hl7.org/CodeSystem/v2-0074"
                            }
                        ]
                    }
                ],
                "code": {
                    "coding": [
                        {
                            "code": "R125_Cardiology",
                            "display": "PANEL: R125.1, R125.2 - Thoracic aortic aneurysm and dissection v1.2",
                            "system": "https://fhir.nwgenomics.nhs.uk/CodeSystem/IGEAP"
                        },
                        {
                            "code": "R125.1",
                            "display": "Thoracic aortic aneurysm or dissection (WES or Medium Panel)",
                            "system": "https://fhir.nhs.uk/CodeSystem/England-GenomicTestDirectory"
                        }
                    ]
                },
                "effectiveDateTime": "2025-10-14T15:59:16+00:00",
                "extension": [
                    {
                        "url": "http://hl7.org/fhir/StructureDefinition/workflow-supportingInfo",
                        "valueReference": {
                            "display": "Genetic report",
                            "reference": "urn:uuid:e31aea32-7148-45b6-a50f-eaea211697ca",
                            "type": "DocumentReference"
                        }
                    }
                ],
                "identifier": [
                    {
                        "assigner": {
                            "identifier": {
                                "system": "https://fhir.nhs.uk/Id/ods-organization-code",
                                "value": "699X0"
                            }
                        },
                        "system": "https://fhir.nwgenomics.nhs.uk/iGene/ReportIdentifier",
                        "type": {
                            "coding": [
                                {
                                    "code": "FILL",
                                    "system": "http://terminology.hl7.org/CodeSystem/v2-0203"
                                }
                            ]
                        },
                        "value": "T25-0213"
                    }
                ],
                "issued": "2025-10-14T15:59:16+00:00",
                "performer": [
                    {
                        "display": "NHS North West Genomics",
                        "identifier": {
                            "system": "https://fhir.nhs.uk/Id/ods-organization-code",
                            "value": "699X0"
                        },
                        "type": "Organization"
                    }
                ],
                "presentedForm": [
                    {}
                ],
                "resultsInterpreter": [
                    {
                        "display": "Jonathan Edgerley"
                    }
                ],
                "specimen": [
                    {
                        "reference": "urn:uuid:091cc6b3-8e4f-4bdc-8901-caa14824a0b9",
                        "type": "Specimen"
                    }
                ],
                "status": "final",
                "subject": {
                    "identifier": {
                        "system": "https://fhir.nhs.uk/Id/hsc-number",
                        "type": {
                            "coding": [
                                {
                                    "code": "NH",
                                    "system": "http://terminology.hl7.org/CodeSystem/v2-0203"
                                }
                            ]
                        },
                        "value": "3200000000"
                    },
                    "reference": "urn:uuid:4ff6c149-0ebd-493e-8e6c-abfd5adf776d"
                }
            }
        }
    ],
    "identifier": {
        "value": "ORIE-251014-9"
    },
    "timestamp": "2025-10-14T15:59:42+00:00",
    "type": "message"
}