{
    "resourceType": "Bundle",
    "entry": [
        {
            "fullUrl": "urn:uuid:66a92dca-1ef1-498b-9752-b22785a341f5",
            "resource": {
                "resourceType": "MessageHeader",
                "destination": [
                    {
                        "endpoint": "https//fhir.mft.nhs.uk/Endpoint/cymru.nhs.uk",
                        "receiver": {
                            "identifier": {
                                "system": "https://fhir.nhs.uk/Id/ods-organization-code",
                                "value": "NHSWales"
                            }
                        }
                    }
                ],
                "eventCoding": {
                    "code": "T02",
                    "system": "http://terminology.hl7.org/CodeSystem/v2-0003"
                },
                "focus": [
                    {
                        "reference": "urn:uuid:c7bf8138-91a5-46b3-9ea2-a2b01d6b7a8f"
                    },
                    {
                        "reference": "urn:uuid:f01bf7f9-9011-463c-a276-e51d8fc070c2"
                    },
                    {
                        "reference": "urn:uuid:16b54d19-643c-427d-9ddd-39973916ceae"
                    },
                    {
                        "reference": "urn:uuid:8884056d-dac1-464c-865e-92ed179a31fe"
                    },
                    {
                        "reference": "urn:uuid:902469ef-7caa-4057-8987-0010344497e3"
                    }
                ],
                "sender": {
                    "identifier": {
                        "system": "https://fhir.nhs.uk/Id/ods-organization-code",
                        "value": "CAV"
                    }
                },
                "source": {
                    "endpoint": "https://fhir.nwgenomics.nhs.uk/Endpoint/ACMELab",
                    "software": "NW GLH"
                }
            }
        },
        {
            "fullUrl": "urn:uuid:672b58c8-8a53-40bf-8c94-fdfa2b258315",
            "resource": {
                "resourceType": "Patient",
                "address": [
                    {
                        "city": "Baglan",
                        "district": "Neath port talbot",
                        "line": [
                            "A B M U Health Board",
                            "One Talbot Gateway"
                        ],
                        "postalCode": "SA12 7BR"
                    }
                ],
                "birthDate": "1999-10-13",
                "gender": "male",
                "identifier": [
                    {
                        "assigner": {
                            "identifier": {
                                "system": "https://fhir.nhs.uk/Id/ods-organization-code",
                                "value": "7A4"
                            }
                        },
                        "type": {
                            "coding": [
                                {
                                    "code": "PI",
                                    "system": "http://terminology.hl7.org/CodeSystem/v2-0203"
                                }
                            ]
                        },
                        "value": "403281375"
                    },
                    {
                        "assigner": {
                            "identifier": {
                                "system": "https://fhir.nhs.uk/Id/ods-organization-code",
                                "value": "X24"
                            }
                        },
                        "system": "https://fhir.nhs.uk/Id/nhs-number",
                        "type": {
                            "coding": [
                                {
                                    "code": "NH",
                                    "system": "http://terminology.hl7.org/CodeSystem/v2-0203"
                                }
                            ]
                        },
                        "value": "9737383257"
                    }
                ],
                "name": [
                    {
                        "family": "WREXHAM",
                        "given": [
                            "Myrcella"
                        ],
                        "prefix": [
                            "Mr"
                        ]
                    }
                ]
            }
        },
        {
            "fullUrl": "urn:uuid:6889c3c8-191b-4736-9bca-9169223efb47",
            "resource": {
                "resourceType": "Observation",
                "code": {
                    "coding": [
                        {
                            "code": "B3553",
                            "display": "HbA1c (IFCC traceable)"
                        }
                    ]
                },
                "effectiveDateTime": "2018-03-09T15:00:00+00:00",
                "identifier": [
                    {
                        "type": {
                            "coding": [
                                {
                                    "code": "FILL",
                                    "system": "http://terminology.hl7.org/CodeSystem/v2-0203"
                                }
                            ]
                        },
                        "value": "914694928301"
                    }
                ],
                "performer": [
                    {
                        "identifier": {
                            "system": "https://fhir.nhs.uk/Id/ods-organization-code",
                            "value": "699X0"
                        },
                        "type": "Organization"
                    }
                ],
                "referenceRange": [
                    {
                        "text": "<48"
                    }
                ],
                "status": "final",
                "subject": {
                    "identifier": {
                        "assigner": {
                            "identifier": {
                                "system": "https://fhir.nhs.uk/Id/ods-organization-code",
                                "value": "X24"
                            }
                        },
                        "system": "https://fhir.nhs.uk/Id/nhs-number",
                        "type": {
                            "coding": [
                                {
                                    "code": "NH",
                                    "system": "http://terminology.hl7.org/CodeSystem/v2-0203"
                                }
                            ]
                        },
                        "value": "9737383257"
                    },
                    "reference": "urn:uuid:672b58c8-8a53-40bf-8c94-fdfa2b258315"
                },
                "valueQuantity": {
                    "system": "http://unitsofmeasure.org",
                    "unit": "mmol/mol",
                    "value": 49
                }
            }
        },
        {
            "fullUrl": "urn:uuid:3a0fc690-af83-47ef-bb98-adafd4c07638",
            "resource": {
                "resourceType": "Specimen",
                "identifier": [
                    {
                        "type": {
                            "coding": [
                                {
                                    "code": "PLAC",
                                    "system": "http://terminology.hl7.org/CodeSystem/v2-0203"
                                }
                            ]
                        },
                        "value": "914694928301"
                    }
                ],
                "receivedTime": "2018-03-09T15:00:00+00:00",
                "status": "unavailable",
                "subject": {
                    "identifier": {
                        "assigner": {
                            "identifier": {
                                "system": "https://fhir.nhs.uk/Id/ods-organization-code",
                                "value": "X24"
                            }
                        },
                        "system": "https://fhir.nhs.uk/Id/nhs-number",
                        "type": {
                            "coding": [
                                {
                                    "code": "NH",
                                    "system": "http://terminology.hl7.org/CodeSystem/v2-0203"
                                }
                            ]
                        },
                        "value": "9737383257"
                    },
                    "reference": "urn:uuid:672b58c8-8a53-40bf-8c94-fdfa2b258315"
                }
            }
        },
        {
            "fullUrl": "urn:uuid:851dd2f8-0856-449b-9fde-2ca6c5bb86fa",
            "resource": {
                "resourceType": "ServiceRequest",
                "category": [
                    {
                        "coding": [
                            {
                                "code": "116148004",
                                "system": "http://snomed.info/sct"
                            }
                        ]
                    }
                ],
                "code": {
                    "coding": [
                        {
                            "code": "B3051",
                            "display": "HbA1c (IFCC traceable)"
                        }
                    ]
                },
                "identifier": [
                    {
                        "type": {
                            "coding": [
                                {
                                    "code": "FILL",
                                    "system": "http://terminology.hl7.org/CodeSystem/v2-0203"
                                }
                            ]
                        },
                        "value": "914694928301"
                    }
                ],
                "intent": "order",
                "specimen": [
                    {
                        "reference": "urn:uuid:3a0fc690-af83-47ef-bb98-adafd4c07638",
                        "type": "Specimen"
                    }
                ],
                "status": "completed",
                "subject": {
                    "identifier": {
                        "assigner": {
                            "identifier": {
                                "system": "https://fhir.nhs.uk/Id/ods-organization-code",
                                "value": "X24"
                            }
                        },
                        "system": "https://fhir.nhs.uk/Id/nhs-number",
                        "type": {
                            "coding": [
                                {
                                    "code": "NH",
                                    "system": "http://terminology.hl7.org/CodeSystem/v2-0203"
                                }
                            ]
                        },
                        "value": "9737383257"
                    },
                    "reference": "urn:uuid:672b58c8-8a53-40bf-8c94-fdfa2b258315"
                }
            }
        },
        {
            "fullUrl": "urn:uuid:c7bf8138-91a5-46b3-9ea2-a2b01d6b7a8f",
            "resource": {
                "resourceType": "DiagnosticReport",
                "basedOn": [
                    {
                        "identifier": {
                            "type": {
                                "coding": [
                                    {
                                        "code": "FILL",
                                        "system": "http://terminology.hl7.org/CodeSystem/v2-0203"
                                    }
                                ]
                            },
                            "value": "914694928301"
                        },
                        "reference": "urn:uuid:851dd2f8-0856-449b-9fde-2ca6c5bb86fa",
                        "type": "ServiceRequest"
                    }
                ],
                "category": [
                    {
                        "coding": [
                            {
                                "code": "GE",
                                "system": "http://terminology.hl7.org/CodeSystem/v2-0074"
                            }
                        ]
                    }
                ],
                "code": {
                    "coding": [
                        {
                            "code": "B3051",
                            "display": "HbA1c (IFCC traceable)"
                        }
                    ]
                },
                "effectiveDateTime": "2018-03-09T15:00:00+00:00",
                "identifier": [
                    {
                        "type": {
                            "coding": [
                                {
                                    "code": "FILL",
                                    "system": "http://terminology.hl7.org/CodeSystem/v2-0203"
                                }
                            ]
                        },
                        "value": "914694928301"
                    }
                ],
                "issued": "2018-03-09T15:00:00+00:00",
                "performer": [
                    {
                        "display": "NHS North West Genomics",
                        "identifier": {
                            "system": "https://fhir.nhs.uk/Id/ods-organization-code",
                            "value": "699X0"
                        },
                        "type": "Organization"
                    }
                ],
                "result": [
                    {
                        "display": "HbA1c (IFCC traceable)",
                        "reference": "urn:uuid:6889c3c8-191b-4736-9bca-9169223efb47",
                        "type": "Observation"
                    }
                ],
                "specimen": [
                    {
                        "reference": "urn:uuid:3a0fc690-af83-47ef-bb98-adafd4c07638",
                        "type": "Specimen"
                    }
                ],
                "status": "final",
                "subject": {
                    "identifier": {
                        "assigner": {
                            "identifier": {
                                "system": "https://fhir.nhs.uk/Id/ods-organization-code",
                                "value": "X24"
                            }
                        },
                        "system": "https://fhir.nhs.uk/Id/nhs-number",
                        "type": {
                            "coding": [
                                {
                                    "code": "NH",
                                    "system": "http://terminology.hl7.org/CodeSystem/v2-0203"
                                }
                            ]
                        },
                        "value": "9737383257"
                    },
                    "reference": "urn:uuid:672b58c8-8a53-40bf-8c94-fdfa2b258315"
                }
            }
        },
        {
            "fullUrl": "urn:uuid:87549fc9-e833-40f0-bd24-0a790ff0391b",
            "resource": {
                "resourceType": "Observation",
                "code": {
                    "coding": [
                        {
                            "code": "B0300",
                            "display": "White blood cell (WBC) count"
                        }
                    ]
                },
                "effectiveDateTime": "2018-03-09T15:00:00+00:00",
                "identifier": [
                    {
                        "type": {
                            "coding": [
                                {
                                    "code": "FILL",
                                    "system": "http://terminology.hl7.org/CodeSystem/v2-0203"
                                }
                            ]
                        },
                        "value": "914694928301"
                    }
                ],
                "performer": [
                    {
                        "identifier": {
                            "system": "https://fhir.nhs.uk/Id/ods-organization-code",
                            "value": "699X0"
                        },
                        "type": "Organization"
                    }
                ],
                "referenceRange": [
                    {
                        "text": "4.0-11.0"
                    }
                ],
                "status": "final",
                "subject": {
                    "identifier": {
                        "assigner": {
                            "identifier": {
                                "system": "https://fhir.nhs.uk/Id/ods-organization-code",
                                "value": "X24"
                            }
                        },
                        "system": "https://fhir.nhs.uk/Id/nhs-number",
                        "type": {
                            "coding": [
                                {
                                    "code": "NH",
                                    "system": "http://terminology.hl7.org/CodeSystem/v2-0203"
                                }
                            ]
                        },
                        "value": "9737383257"
                    },
                    "reference": "urn:uuid:672b58c8-8a53-40bf-8c94-fdfa2b258315"
                },
                "valueQuantity": {
                    "system": "http://unitsofmeasure.org",
                    "unit": "x10\\S\\9/L",
                    "value": 3.5
                }
            }
        },
        {
            "fullUrl": "urn:uuid:42f65381-4789-4de3-9cbe-f89e794de29c",
            "resource": {
                "resourceType": "Observation",
                "code": {
                    "coding": [
                        {
                            "code": "B0307",
                            "display": "Haemoglobin (Hb)"
                        }
                    ]
                },
                "effectiveDateTime": "2018-03-09T15:00:00+00:00",
                "identifier": [
                    {
                        "type": {
                            "coding": [
                                {
                                    "code": "FILL",
                                    "system": "http://terminology.hl7.org/CodeSystem/v2-0203"
                                }
                            ]
                        },
                        "value": "914694928301"
                    }
                ],
                "performer": [
                    {
                        "identifier": {
                            "system": "https://fhir.nhs.uk/Id/ods-organization-code",
                            "value": "699X0"
                        },
                        "type": "Organization"
                    }
                ],
                "referenceRange": [
                    {
                        "text": "130-180"
                    }
                ],
                "status": "final",
                "subject": {
                    "identifier": {
                        "assigner": {
                            "identifier": {
                                "system": "https://fhir.nhs.uk/Id/ods-organization-code",
                                "value": "X24"
                            }
                        },
                        "system": "https://fhir.nhs.uk/Id/nhs-number",
                        "type": {
                            "coding": [
                                {
                                    "code": "NH",
                                    "system": "http://terminology.hl7.org/CodeSystem/v2-0203"
                                }
                            ]
                        },
                        "value": "9737383257"
                    },
                    "reference": "urn:uuid:672b58c8-8a53-40bf-8c94-fdfa2b258315"
                },
                "valueQuantity": {
                    "comparator": "<",
                    "system": "http://unitsofmeasure.org",
                    "unit": "g/L",
                    "value": 149
                }
            }
        },
        {
            "fullUrl": "urn:uuid:8399dbd4-3372-4a57-a541-6eb25569b2c1",
            "resource": {
                "resourceType": "Observation",
                "code": {
                    "coding": [
                        {
                            "code": "B0314",
                            "display": "Platelet (PLT) count"
                        }
                    ]
                },
                "effectiveDateTime": "2018-03-09T15:00:00+00:00",
                "identifier": [
                    {
                        "type": {
                            "coding": [
                                {
                                    "code": "FILL",
                                    "system": "http://terminology.hl7.org/CodeSystem/v2-0203"
                                }
                            ]
                        },
                        "value": "914694928301"
                    }
                ],
                "performer": [
                    {
                        "identifier": {
                            "system": "https://fhir.nhs.uk/Id/ods-organization-code",
                            "value": "699X0"
                        },
                        "type": "Organization"
                    }
                ],
                "referenceRange": [
                    {
                        "text": "150-400"
                    }
                ],
                "status": "final",
                "subject": {
                    "identifier": {
                        "assigner": {
                            "identifier": {
                                "system": "https://fhir.nhs.uk/Id/ods-organization-code",
                                "value": "X24"
                            }
                        },
                        "system": "https://fhir.nhs.uk/Id/nhs-number",
                        "type": {
                            "coding": [
                                {
                                    "code": "NH",
                                    "system": "http://terminology.hl7.org/CodeSystem/v2-0203"
                                }
                            ]
                        },
                        "value": "9737383257"
                    },
                    "reference": "urn:uuid:672b58c8-8a53-40bf-8c94-fdfa2b258315"
                },
                "valueQuantity": {
                    "system": "http://unitsofmeasure.org",
                    "unit": "x10\\S\\9/L",
                    "value": 500
                }
            }
        },
        {
            "fullUrl": "urn:uuid:0ed3d219-da54-4fa0-8b42-61b6c319c16a",
            "resource": {
                "resourceType": "Observation",
                "code": {
                    "coding": [
                        {
                            "code": "B0306",
                            "display": "Red blood cell (RBC) count"
                        }
                    ]
                },
                "effectiveDateTime": "2018-03-09T15:00:00+00:00",
                "identifier": [
                    {
                        "type": {
                            "coding": [
                                {
                                    "code": "FILL",
                                    "system": "http://terminology.hl7.org/CodeSystem/v2-0203"
                                }
                            ]
                        },
                        "value": "914694928301"
                    }
                ],
                "performer": [
                    {
                        "identifier": {
                            "system": "https://fhir.nhs.uk/Id/ods-organization-code",
                            "value": "699X0"
                        },
                        "type": "Organization"
                    }
                ],
                "referenceRange": [
                    {
                        "text": "4.50-6.00"
                    }
                ],
                "status": "final",
                "subject": {
                    "identifier": {
                        "assigner": {
                            "identifier": {
                                "system": "https://fhir.nhs.uk/Id/ods-organization-code",
                                "value": "X24"
                            }
                        },
                        "system": "https://fhir.nhs.uk/Id/nhs-number",
                        "type": {
                            "coding": [
                                {
                                    "code": "NH",
                                    "system": "http://terminology.hl7.org/CodeSystem/v2-0203"
                                }
                            ]
                        },
                        "value": "9737383257"
                    },
                    "reference": "urn:uuid:672b58c8-8a53-40bf-8c94-fdfa2b258315"
                },
                "valueQuantity": {
                    "system": "http://unitsofmeasure.org",
                    "unit": "x10\\S\\12/L",
                    "value": 6.0
                }
            }
        },
        {
            "fullUrl": "urn:uuid:9fef9a5e-c70b-468b-b59a-274717694c5c",
            "resource": {
                "resourceType": "Observation",
                "code": {
                    "coding": [
                        {
                            "code": "B0309",
                            "display": "Mean cell volume (MCV)"
                        }
                    ]
                },
                "effectiveDateTime": "2018-03-09T15:00:00+00:00",
                "identifier": [
                    {
                        "type": {
                            "coding": [
                                {
                                    "code": "FILL",
                                    "system": "http://terminology.hl7.org/CodeSystem/v2-0203"
                                }
                            ]
                        },
                        "value": "914694928301"
                    }
                ],
                "performer": [
                    {
                        "identifier": {
                            "system": "https://fhir.nhs.uk/Id/ods-organization-code",
                            "value": "699X0"
                        },
                        "type": "Organization"
                    }
                ],
                "referenceRange": [
                    {
                        "text": "80-100"
                    }
                ],
                "status": "final",
                "subject": {
                    "identifier": {
                        "assigner": {
                            "identifier": {
                                "system": "https://fhir.nhs.uk/Id/ods-organization-code",
                                "value": "X24"
                            }
                        },
                        "system": "https://fhir.nhs.uk/Id/nhs-number",
                        "type": {
                            "coding": [
                                {
                                    "code": "NH",
                                    "system": "http://terminology.hl7.org/CodeSystem/v2-0203"
                                }
                            ]
                        },
                        "value": "9737383257"
                    },
                    "reference": "urn:uuid:672b58c8-8a53-40bf-8c94-fdfa2b258315"
                },
                "valueCodeableConcept": {
                    "coding": [
                        {
                            "code": "NA",
                            "display": "Not assayed",
                            "system": "ACME"
                        }
                    ]
                }
            }
        },
        {
            "fullUrl": "urn:uuid:6c6768b9-f7b5-4733-a180-6606adc6dee8",
            "resource": {
                "resourceType": "Specimen",
                "collection": {
                    "collectedDateTime": "2018-03-09T14:00:00+00:00"
                },
                "identifier": [
                    {
                        "type": {
                            "coding": [
                                {
                                    "code": "FILL",
                                    "system": "http://terminology.hl7.org/CodeSystem/v2-0203"
                                }
                            ]
                        },
                        "value": "9146949283"
                    }
                ],
                "receivedTime": "2018-03-09T15:00:00+00:00",
                "status": "unavailable",
                "subject": {
                    "identifier": {
                        "assigner": {
                            "identifier": {
                                "system": "https://fhir.nhs.uk/Id/ods-organization-code",
                                "value": "X24"
                            }
                        },
                        "system": "https://fhir.nhs.uk/Id/nhs-number",
                        "type": {
                            "coding": [
                                {
                                    "code": "NH",
                                    "system": "http://terminology.hl7.org/CodeSystem/v2-0203"
                                }
                            ]
                        },
                        "value": "9737383257"
                    },
                    "reference": "urn:uuid:672b58c8-8a53-40bf-8c94-fdfa2b258315"
                },
                "type": {
                    "coding": [
                        {
                            "code": "BLOO",
                            "display": "Blood",
                            "system": "ACME"
                        }
                    ]
                }
            }
        },
        {
            "fullUrl": "urn:uuid:f01bf7f9-9011-463c-a276-e51d8fc070c2",
            "resource": {
                "resourceType": "DiagnosticReport",
                "category": [
                    {
                        "coding": [
                            {
                                "code": "GE",
                                "system": "http://terminology.hl7.org/CodeSystem/v2-0074"
                            }
                        ]
                    }
                ],
                "code": {
                    "coding": [
                        {
                            "code": "B0001",
                            "display": "Full blood count"
                        }
                    ]
                },
                "effectiveDateTime": "2018-03-09T15:00:00+00:00",
                "identifier": [
                    {
                        "type": {
                            "coding": [
                                {
                                    "code": "FILL",
                                    "system": "http://terminology.hl7.org/CodeSystem/v2-0203"
                                }
                            ]
                        },
                        "value": "914694928301"
                    }
                ],
                "issued": "2018-03-09T15:00:00+00:00",
                "performer": [
                    {
                        "display": "NHS North West Genomics",
                        "identifier": {
                            "system": "https://fhir.nhs.uk/Id/ods-organization-code",
                            "value": "699X0"
                        },
                        "type": "Organization"
                    }
                ],
                "result": [
                    {
                        "display": "White blood cell (WBC) count",
                        "reference": "urn:uuid:87549fc9-e833-40f0-bd24-0a790ff0391b",
                        "type": "Observation"
                    },
                    {
                        "display": "Haemoglobin (Hb)",
                        "reference": "urn:uuid:42f65381-4789-4de3-9cbe-f89e794de29c",
                        "type": "Observation"
                    },
                    {
                        "display": "Platelet (PLT) count",
                        "reference": "urn:uuid:8399dbd4-3372-4a57-a541-6eb25569b2c1",
                        "type": "Observation"
                    },
                    {
                        "display": "Red blood cell (RBC) count",
                        "reference": "urn:uuid:0ed3d219-da54-4fa0-8b42-61b6c319c16a",
                        "type": "Observation"
                    },
                    {
                        "display": "Mean cell volume (MCV)",
                        "reference": "urn:uuid:9fef9a5e-c70b-468b-b59a-274717694c5c",
                        "type": "Observation"
                    }
                ],
                "specimen": [
                    {
                        "reference": "urn:uuid:6c6768b9-f7b5-4733-a180-6606adc6dee8",
                        "type": "Specimen"
                    }
                ],
                "status": "final",
                "subject": {
                    "identifier": {
                        "assigner": {
                            "identifier": {
                                "system": "https://fhir.nhs.uk/Id/ods-organization-code",
                                "value": "X24"
                            }
                        },
                        "system": "https://fhir.nhs.uk/Id/nhs-number",
                        "type": {
                            "coding": [
                                {
                                    "code": "NH",
                                    "system": "http://terminology.hl7.org/CodeSystem/v2-0203"
                                }
                            ]
                        },
                        "value": "9737383257"
                    },
                    "reference": "urn:uuid:672b58c8-8a53-40bf-8c94-fdfa2b258315"
                }
            }
        },
        {
            "fullUrl": "urn:uuid:ee187100-89f6-4708-8238-f0c6b0013af1",
            "resource": {
                "resourceType": "Binary",
                "contentType": "application/pdf",
                "data": "JVBERi0xLjQKJcOkw7zDtsOfCjIgMCBvYmoKPDw...EyNDk0IDAwMDAwIG4gCnRyYWlsZXIKPDwvU2l6ZS"
            }
        },
        {
            "fullUrl": "urn:uuid:173140b7-213b-464a-a0eb-a78d8e85fbbd",
            "resource": {
                "resourceType": "DocumentReference",
                "content": [
                    {
                        "attachment": {
                            "contentType": "application/pdf",
                            "url": "urn:uuid:ee187100-89f6-4708-8238-f0c6b0013af1"
                        }
                    }
                ],
                "context": {
                    "period": {
                        "end": "2018-11-09T12:38:51+00:00",
                        "start": "2018-11-09T12:38:51+00:00"
                    },
                    "related": [
                        {
                            "identifier": {
                                "assigner": {
                                    "identifier": {
                                        "system": "https://fhir.nhs.uk/Id/ods-organization-code",
                                        "value": "7A4BV"
                                    }
                                },
                                "type": {
                                    "coding": [
                                        {
                                            "code": "FILL",
                                            "system": "http://terminology.hl7.org/CodeSystem/v2-0203"
                                        }
                                    ]
                                },
                                "value": "287018"
                            },
                            "reference": "urn:uuid:16b54d19-643c-427d-9ddd-39973916ceae",
                            "type": "DiagnosticReport"
                        }
                    ]
                },
                "custodian": {
                    "identifier": {
                        "system": "https://fhir.nhs.uk/Id/ods-organization-code",
                        "value": "699X0"
                    },
                    "type": "Organization"
                },
                "date": "2018-11-09T12:38:51+00:00",
                "identifier": [
                    {
                        "assigner": {
                            "identifier": {
                                "system": "https://fhir.nhs.uk/Id/ods-organization-code",
                                "value": "7A4BV"
                            }
                        },
                        "type": {
                            "coding": [
                                {
                                    "code": "FILL",
                                    "system": "http://terminology.hl7.org/CodeSystem/v2-0203"
                                }
                            ]
                        },
                        "value": "287018"
                    }
                ],
                "status": "current",
                "subject": {
                    "identifier": {
                        "assigner": {
                            "identifier": {
                                "system": "https://fhir.nhs.uk/Id/ods-organization-code",
                                "value": "X24"
                            }
                        },
                        "system": "https://fhir.nhs.uk/Id/nhs-number",
                        "type": {
                            "coding": [
                                {
                                    "code": "NH",
                                    "system": "http://terminology.hl7.org/CodeSystem/v2-0203"
                                }
                            ]
                        },
                        "value": "9737383257"
                    },
                    "reference": "urn:uuid:672b58c8-8a53-40bf-8c94-fdfa2b258315"
                },
                "type": {
                    "coding": [
                        {
                            "code": "CATH",
                            "display": "Cardiac Catheter Report",
                            "system": "L"
                        }
                    ]
                }
            }
        },
        {
            "fullUrl": "urn:uuid:4590f65a-f2bb-4b82-88dd-914b249374a1",
            "resource": {
                "resourceType": "Binary",
                "contentType": "application/pdf",
                "data": "AxNi9Sb290IDE0IDAgUgovSW5mbyAxNSAwIFIKL0lEIFsgPE...KPj4Kc3RhcnR4cmVmCjEyNzg3CiUlRU9GCg=="
            }
        },
        {
            "fullUrl": "urn:uuid:a33bbdcf-8061-4afe-8697-9a0cf558e2ea",
            "resource": {
                "resourceType": "DocumentReference",
                "content": [
                    {
                        "attachment": {
                            "contentType": "application/pdf",
                            "url": "urn:uuid:4590f65a-f2bb-4b82-88dd-914b249374a1"
                        }
                    }
                ],
                "context": {
                    "period": {
                        "end": "2018-11-09T12:38:51+00:00",
                        "start": "2018-11-09T12:38:51+00:00"
                    },
                    "related": [
                        {
                            "identifier": {
                                "assigner": {
                                    "identifier": {
                                        "system": "https://fhir.nhs.uk/Id/ods-organization-code",
                                        "value": "7A4BV"
                                    }
                                },
                                "type": {
                                    "coding": [
                                        {
                                            "code": "FILL",
                                            "system": "http://terminology.hl7.org/CodeSystem/v2-0203"
                                        }
                                    ]
                                },
                                "value": "287018"
                            },
                            "reference": "urn:uuid:16b54d19-643c-427d-9ddd-39973916ceae",
                            "type": "DiagnosticReport"
                        }
                    ]
                },
                "custodian": {
                    "identifier": {
                        "system": "https://fhir.nhs.uk/Id/ods-organization-code",
                        "value": "699X0"
                    },
                    "type": "Organization"
                },
                "date": "2018-11-09T12:38:51+00:00",
                "identifier": [
                    {
                        "assigner": {
                            "identifier": {
                                "system": "https://fhir.nhs.uk/Id/ods-organization-code",
                                "value": "7A4BV"
                            }
                        },
                        "type": {
                            "coding": [
                                {
                                    "code": "FILL",
                                    "system": "http://terminology.hl7.org/CodeSystem/v2-0203"
                                }
                            ]
                        },
                        "value": "287018"
                    }
                ],
                "status": "current",
                "subject": {
                    "identifier": {
                        "assigner": {
                            "identifier": {
                                "system": "https://fhir.nhs.uk/Id/ods-organization-code",
                                "value": "X24"
                            }
                        },
                        "system": "https://fhir.nhs.uk/Id/nhs-number",
                        "type": {
                            "coding": [
                                {
                                    "code": "NH",
                                    "system": "http://terminology.hl7.org/CodeSystem/v2-0203"
                                }
                            ]
                        },
                        "value": "9737383257"
                    },
                    "reference": "urn:uuid:672b58c8-8a53-40bf-8c94-fdfa2b258315"
                },
                "type": {
                    "coding": [
                        {
                            "code": "CATH",
                            "display": "Cardiac Catheter Report",
                            "system": "L"
                        }
                    ]
                }
            }
        },
        {
            "fullUrl": "urn:uuid:16b54d19-643c-427d-9ddd-39973916ceae",
            "resource": {
                "resourceType": "DiagnosticReport",
                "category": [
                    {
                        "coding": [
                            {
                                "code": "GE",
                                "system": "http://terminology.hl7.org/CodeSystem/v2-0074"
                            }
                        ]
                    }
                ],
                "code": {
                    "coding": [
                        {
                            "code": "CATH",
                            "display": "Cardiac Catheter Report",
                            "system": "L"
                        }
                    ]
                },
                "effectiveDateTime": "2018-11-09T12:38:51+00:00",
                "extension": [
                    {
                        "extension": [
                            {
                                "url": "reference",
                                "valueReference": {
                                    "display": "Cardiac Catheter Report",
                                    "reference": "urn:uuid:173140b7-213b-464a-a0eb-a78d8e85fbbd",
                                    "type": "DocumentReference"
                                }
                            },
                            {
                                "url": "type",
                                "valueCodeableConcept": {
                                    "coding": [
                                        {
                                            "code": "SCI",
                                            "system": "http://hl7.org/fhir/diagnosticreport-relevant-information-types"
                                        }
                                    ]
                                }
                            }
                        ],
                        "url": "http://hl7.org/fhir/5.0/StructureDefinition/extension-DiagnosticReport.supportingInfo"
                    },
                    {
                        "extension": [
                            {
                                "url": "reference",
                                "valueReference": {
                                    "display": "Cardiac Catheter Report",
                                    "reference": "urn:uuid:a33bbdcf-8061-4afe-8697-9a0cf558e2ea",
                                    "type": "DocumentReference"
                                }
                            },
                            {
                                "url": "type",
                                "valueCodeableConcept": {
                                    "coding": [
                                        {
                                            "code": "SCI",
                                            "system": "http://hl7.org/fhir/diagnosticreport-relevant-information-types"
                                        }
                                    ]
                                }
                            }
                        ],
                        "url": "http://hl7.org/fhir/5.0/StructureDefinition/extension-DiagnosticReport.supportingInfo"
                    }
                ],
                "identifier": [
                    {
                        "assigner": {
                            "identifier": {
                                "system": "https://fhir.nhs.uk/Id/ods-organization-code",
                                "value": "7A4BV"
                            }
                        },
                        "type": {
                            "coding": [
                                {
                                    "code": "FILL",
                                    "system": "http://terminology.hl7.org/CodeSystem/v2-0203"
                                }
                            ]
                        },
                        "value": "287018"
                    }
                ],
                "issued": "2018-11-09T12:48:18+00:00",
                "performer": [
                    {
                        "display": "NHS North West Genomics",
                        "identifier": {
                            "system": "https://fhir.nhs.uk/Id/ods-organization-code",
                            "value": "699X0"
                        },
                        "type": "Organization"
                    }
                ],
                "status": "partial",
                "subject": {
                    "identifier": {
                        "assigner": {
                            "identifier": {
                                "system": "https://fhir.nhs.uk/Id/ods-organization-code",
                                "value": "X24"
                            }
                        },
                        "system": "https://fhir.nhs.uk/Id/nhs-number",
                        "type": {
                            "coding": [
                                {
                                    "code": "NH",
                                    "system": "http://terminology.hl7.org/CodeSystem/v2-0203"
                                }
                            ]
                        },
                        "value": "9737383257"
                    },
                    "reference": "urn:uuid:672b58c8-8a53-40bf-8c94-fdfa2b258315"
                }
            }
        },
        {
            "fullUrl": "urn:uuid:a2fc6283-a92c-4726-bd64-cd2a574ab50e",
            "resource": {
                "resourceType": "Binary",
                "contentType": "application/pdf",
                "data": "JVBERi0xLjQKJcOkw7zDtsOfCjIgMCBvYm...VmCjEyNzg3CiUlRU9GCg=="
            }
        },
        {
            "fullUrl": "urn:uuid:d5306496-24af-4dce-856d-66ab90a90ddb",
            "resource": {
                "resourceType": "DocumentReference",
                "content": [
                    {
                        "attachment": {
                            "contentType": "application/pdf",
                            "url": "urn:uuid:a2fc6283-a92c-4726-bd64-cd2a574ab50e"
                        }
                    }
                ],
                "context": {
                    "period": {
                        "end": "2018-11-09T12:38:51+00:00",
                        "start": "2018-11-09T12:38:51+00:00"
                    },
                    "related": [
                        {
                            "identifier": {
                                "assigner": {
                                    "identifier": {
                                        "system": "https://fhir.nhs.uk/Id/ods-organization-code",
                                        "value": "7A4BV"
                                    }
                                },
                                "type": {
                                    "coding": [
                                        {
                                            "code": "FILL",
                                            "system": "http://terminology.hl7.org/CodeSystem/v2-0203"
                                        }
                                    ]
                                },
                                "value": "A28701"
                            },
                            "reference": "urn:uuid:8884056d-dac1-464c-865e-92ed179a31fe",
                            "type": "DiagnosticReport"
                        }
                    ]
                },
                "custodian": {
                    "identifier": {
                        "system": "https://fhir.nhs.uk/Id/ods-organization-code",
                        "value": "699X0"
                    },
                    "type": "Organization"
                },
                "date": "2018-11-09T12:38:51+00:00",
                "identifier": [
                    {
                        "assigner": {
                            "identifier": {
                                "system": "https://fhir.nhs.uk/Id/ods-organization-code",
                                "value": "7A4BV"
                            }
                        },
                        "type": {
                            "coding": [
                                {
                                    "code": "FILL",
                                    "system": "http://terminology.hl7.org/CodeSystem/v2-0203"
                                }
                            ]
                        },
                        "value": "A28701"
                    }
                ],
                "status": "current",
                "subject": {
                    "identifier": {
                        "assigner": {
                            "identifier": {
                                "system": "https://fhir.nhs.uk/Id/ods-organization-code",
                                "value": "X24"
                            }
                        },
                        "system": "https://fhir.nhs.uk/Id/nhs-number",
                        "type": {
                            "coding": [
                                {
                                    "code": "NH",
                                    "system": "http://terminology.hl7.org/CodeSystem/v2-0203"
                                }
                            ]
                        },
                        "value": "9737383257"
                    },
                    "reference": "urn:uuid:672b58c8-8a53-40bf-8c94-fdfa2b258315"
                },
                "type": {
                    "coding": [
                        {
                            "code": "Appointment",
                            "display": "Appointment Letter",
                            "system": "L"
                        }
                    ]
                }
            }
        },
        {
            "fullUrl": "urn:uuid:8884056d-dac1-464c-865e-92ed179a31fe",
            "resource": {
                "resourceType": "DiagnosticReport",
                "category": [
                    {
                        "coding": [
                            {
                                "code": "GE",
                                "system": "http://terminology.hl7.org/CodeSystem/v2-0074"
                            }
                        ]
                    }
                ],
                "code": {
                    "coding": [
                        {
                            "code": "Appointment",
                            "display": "AppointmentLetter",
                            "system": "L"
                        }
                    ]
                },
                "effectiveDateTime": "2018-11-09T12:38:51+00:00",
                "extension": [
                    {
                        "extension": [
                            {
                                "url": "reference",
                                "valueReference": {
                                    "display": "Appointment Letter",
                                    "reference": "urn:uuid:d5306496-24af-4dce-856d-66ab90a90ddb",
                                    "type": "DocumentReference"
                                }
                            },
                            {
                                "url": "type",
                                "valueCodeableConcept": {
                                    "coding": [
                                        {
                                            "code": "SCI",
                                            "system": "http://hl7.org/fhir/diagnosticreport-relevant-information-types"
                                        }
                                    ]
                                }
                            }
                        ],
                        "url": "http://hl7.org/fhir/5.0/StructureDefinition/extension-DiagnosticReport.supportingInfo"
                    }
                ],
                "identifier": [
                    {
                        "assigner": {
                            "identifier": {
                                "system": "https://fhir.nhs.uk/Id/ods-organization-code",
                                "value": "7A4BV"
                            }
                        },
                        "type": {
                            "coding": [
                                {
                                    "code": "FILL",
                                    "system": "http://terminology.hl7.org/CodeSystem/v2-0203"
                                }
                            ]
                        },
                        "value": "A28701"
                    }
                ],
                "issued": "2018-11-09T12:48:18+00:00",
                "performer": [
                    {
                        "display": "NHS North West Genomics",
                        "identifier": {
                            "system": "https://fhir.nhs.uk/Id/ods-organization-code",
                            "value": "699X0"
                        },
                        "type": "Organization"
                    }
                ],
                "status": "partial",
                "subject": {
                    "identifier": {
                        "assigner": {
                            "identifier": {
                                "system": "https://fhir.nhs.uk/Id/ods-organization-code",
                                "value": "X24"
                            }
                        },
                        "system": "https://fhir.nhs.uk/Id/nhs-number",
                        "type": {
                            "coding": [
                                {
                                    "code": "NH",
                                    "system": "http://terminology.hl7.org/CodeSystem/v2-0203"
                                }
                            ]
                        },
                        "value": "9737383257"
                    },
                    "reference": "urn:uuid:672b58c8-8a53-40bf-8c94-fdfa2b258315"
                }
            }
        },
        {
            "fullUrl": "urn:uuid:fee60071-d8fc-4474-b4c7-f3f66a336292",
            "resource": {
                "resourceType": "Observation",
                "code": {
                    "coding": [
                        {
                            "code": "INTER",
                            "display": "INTERPRETATION",
                            "system": "L"
                        }
                    ]
                },
                "effectiveDateTime": "2019-05-14T10:24:17+00:00",
                "identifier": [
                    {
                        "type": {
                            "coding": [
                                {
                                    "code": "FILL",
                                    "system": "http://terminology.hl7.org/CodeSystem/v2-0203"
                                }
                            ]
                        },
                        "value": "190000041:27491"
                    }
                ],
                "note": [
                    {
                        "text": "Interpreted by: ACME Super User, Signed on 05/14/2019 at 10:24\\n"
                    }
                ],
                "performer": [
                    {
                        "identifier": {
                            "system": "https://fhir.nhs.uk/Id/ods-organization-code",
                            "value": "699X0"
                        },
                        "type": "Organization"
                    }
                ],
                "status": "final",
                "subject": {
                    "identifier": {
                        "assigner": {
                            "identifier": {
                                "system": "https://fhir.nhs.uk/Id/ods-organization-code",
                                "value": "X24"
                            }
                        },
                        "system": "https://fhir.nhs.uk/Id/nhs-number",
                        "type": {
                            "coding": [
                                {
                                    "code": "NH",
                                    "system": "http://terminology.hl7.org/CodeSystem/v2-0203"
                                }
                            ]
                        },
                        "value": "9737383257"
                    },
                    "reference": "urn:uuid:672b58c8-8a53-40bf-8c94-fdfa2b258315"
                },
                "valueString": "rwtu"
            }
        },
        {
            "fullUrl": "urn:uuid:5f55ad09-aaae-44d7-a3a3-116a9bed4167",
            "resource": {
                "resourceType": "Observation",
                "code": {
                    "coding": [
                        {
                            "code": "RESTE",
                            "display": "Reason for testing",
                            "system": "L"
                        }
                    ]
                },
                "effectiveDateTime": "2019-05-14T10:24:17+00:00",
                "identifier": [
                    {
                        "type": {
                            "coding": [
                                {
                                    "code": "FILL",
                                    "system": "http://terminology.hl7.org/CodeSystem/v2-0203"
                                }
                            ]
                        },
                        "value": "190000041:27491"
                    }
                ],
                "performer": [
                    {
                        "identifier": {
                            "system": "https://fhir.nhs.uk/Id/ods-organization-code",
                            "value": "699X0"
                        },
                        "type": "Organization"
                    }
                ],
                "status": "final",
                "subject": {
                    "identifier": {
                        "assigner": {
                            "identifier": {
                                "system": "https://fhir.nhs.uk/Id/ods-organization-code",
                                "value": "X24"
                            }
                        },
                        "system": "https://fhir.nhs.uk/Id/nhs-number",
                        "type": {
                            "coding": [
                                {
                                    "code": "NH",
                                    "system": "http://terminology.hl7.org/CodeSystem/v2-0203"
                                }
                            ]
                        },
                        "value": "9737383257"
                    },
                    "reference": "urn:uuid:672b58c8-8a53-40bf-8c94-fdfa2b258315"
                },
                "valueString": "erw"
            }
        },
        {
            "fullUrl": "urn:uuid:782534b2-cefc-48db-b418-229c77089ba2",
            "resource": {
                "resourceType": "Observation",
                "code": {
                    "coding": [
                        {
                            "code": "TMETH",
                            "display": "Test Methodology",
                            "system": "L"
                        }
                    ]
                },
                "effectiveDateTime": "2019-05-14T10:24:17+00:00",
                "identifier": [
                    {
                        "type": {
                            "coding": [
                                {
                                    "code": "FILL",
                                    "system": "http://terminology.hl7.org/CodeSystem/v2-0203"
                                }
                            ]
                        },
                        "value": "190000041:27491"
                    }
                ],
                "performer": [
                    {
                        "identifier": {
                            "system": "https://fhir.nhs.uk/Id/ods-organization-code",
                            "value": "699X0"
                        },
                        "type": "Organization"
                    }
                ],
                "status": "final",
                "subject": {
                    "identifier": {
                        "assigner": {
                            "identifier": {
                                "system": "https://fhir.nhs.uk/Id/ods-organization-code",
                                "value": "X24"
                            }
                        },
                        "system": "https://fhir.nhs.uk/Id/nhs-number",
                        "type": {
                            "coding": [
                                {
                                    "code": "NH",
                                    "system": "http://terminology.hl7.org/CodeSystem/v2-0203"
                                }
                            ]
                        },
                        "value": "9737383257"
                    },
                    "reference": "urn:uuid:672b58c8-8a53-40bf-8c94-fdfa2b258315"
                },
                "valueString": "sfjg"
            }
        },
        {
            "fullUrl": "urn:uuid:17c58e9c-55b2-497a-8af9-b0d79bfb51be",
            "resource": {
                "resourceType": "Observation",
                "code": {
                    "coding": [
                        {
                            "code": "RESUM",
                            "display": "Result summary",
                            "system": "L"
                        }
                    ]
                },
                "effectiveDateTime": "2019-05-14T10:24:17+00:00",
                "identifier": [
                    {
                        "type": {
                            "coding": [
                                {
                                    "code": "FILL",
                                    "system": "http://terminology.hl7.org/CodeSystem/v2-0203"
                                }
                            ]
                        },
                        "value": "190000041:27491"
                    }
                ],
                "performer": [
                    {
                        "identifier": {
                            "system": "https://fhir.nhs.uk/Id/ods-organization-code",
                            "value": "699X0"
                        },
                        "type": "Organization"
                    }
                ],
                "status": "final",
                "subject": {
                    "identifier": {
                        "assigner": {
                            "identifier": {
                                "system": "https://fhir.nhs.uk/Id/ods-organization-code",
                                "value": "X24"
                            }
                        },
                        "system": "https://fhir.nhs.uk/Id/nhs-number",
                        "type": {
                            "coding": [
                                {
                                    "code": "NH",
                                    "system": "http://terminology.hl7.org/CodeSystem/v2-0203"
                                }
                            ]
                        },
                        "value": "9737383257"
                    },
                    "reference": "urn:uuid:672b58c8-8a53-40bf-8c94-fdfa2b258315"
                },
                "valueString": "tyityu"
            }
        },
        {
            "fullUrl": "urn:uuid:f4f010bb-2a06-44a2-a4f3-3760e943113d",
            "resource": {
                "resourceType": "Observation",
                "code": {
                    "coding": [
                        {
                            "code": "PATPH",
                            "display": "Patient phenotype",
                            "system": "L"
                        }
                    ]
                },
                "effectiveDateTime": "2019-05-14T10:24:17+00:00",
                "identifier": [
                    {
                        "type": {
                            "coding": [
                                {
                                    "code": "FILL",
                                    "system": "http://terminology.hl7.org/CodeSystem/v2-0203"
                                }
                            ]
                        },
                        "value": "190000041:27491"
                    }
                ],
                "performer": [
                    {
                        "identifier": {
                            "system": "https://fhir.nhs.uk/Id/ods-organization-code",
                            "value": "699X0"
                        },
                        "type": "Organization"
                    }
                ],
                "status": "final",
                "subject": {
                    "identifier": {
                        "assigner": {
                            "identifier": {
                                "system": "https://fhir.nhs.uk/Id/ods-organization-code",
                                "value": "X24"
                            }
                        },
                        "system": "https://fhir.nhs.uk/Id/nhs-number",
                        "type": {
                            "coding": [
                                {
                                    "code": "NH",
                                    "system": "http://terminology.hl7.org/CodeSystem/v2-0203"
                                }
                            ]
                        },
                        "value": "9737383257"
                    },
                    "reference": "urn:uuid:672b58c8-8a53-40bf-8c94-fdfa2b258315"
                },
                "valueString": "ghfjg"
            }
        },
        {
            "fullUrl": "urn:uuid:8b0a85c7-278c-4e52-bb92-52be242da357",
            "resource": {
                "resourceType": "Observation",
                "code": {
                    "coding": [
                        {
                            "code": "FOLL",
                            "display": "Follow-up",
                            "system": "L"
                        }
                    ]
                },
                "effectiveDateTime": "2019-05-14T10:24:17+00:00",
                "identifier": [
                    {
                        "type": {
                            "coding": [
                                {
                                    "code": "FILL",
                                    "system": "http://terminology.hl7.org/CodeSystem/v2-0203"
                                }
                            ]
                        },
                        "value": "190000041:27491"
                    }
                ],
                "performer": [
                    {
                        "identifier": {
                            "system": "https://fhir.nhs.uk/Id/ods-organization-code",
                            "value": "699X0"
                        },
                        "type": "Organization"
                    }
                ],
                "status": "final",
                "subject": {
                    "identifier": {
                        "assigner": {
                            "identifier": {
                                "system": "https://fhir.nhs.uk/Id/ods-organization-code",
                                "value": "X24"
                            }
                        },
                        "system": "https://fhir.nhs.uk/Id/nhs-number",
                        "type": {
                            "coding": [
                                {
                                    "code": "NH",
                                    "system": "http://terminology.hl7.org/CodeSystem/v2-0203"
                                }
                            ]
                        },
                        "value": "9737383257"
                    },
                    "reference": "urn:uuid:672b58c8-8a53-40bf-8c94-fdfa2b258315"
                },
                "valueString": "yue"
            }
        },
        {
            "fullUrl": "urn:uuid:f7c47d35-b1b9-420f-ae7d-06f3be163d2f",
            "resource": {
                "resourceType": "Binary",
                "contentType": "application/pdf",
                "data": ""
            }
        },
        {
            "fullUrl": "urn:uuid:89c13946-808a-441c-9a64-f1478312a584",
            "resource": {
                "resourceType": "DocumentReference",
                "content": [
                    {
                        "attachment": {
                            "contentType": "application/pdf",
                            "url": "urn:uuid:f7c47d35-b1b9-420f-ae7d-06f3be163d2f"
                        }
                    }
                ],
                "context": {
                    "period": {
                        "end": "2019-05-14T10:24:17+00:00",
                        "start": "2019-05-14T10:24:17+00:00"
                    },
                    "related": [
                        {
                            "identifier": {
                                "type": {
                                    "coding": [
                                        {
                                            "code": "FILL",
                                            "system": "http://terminology.hl7.org/CodeSystem/v2-0203"
                                        }
                                    ]
                                },
                                "value": "190000041:27491"
                            },
                            "reference": "urn:uuid:902469ef-7caa-4057-8987-0010344497e3",
                            "type": "DiagnosticReport"
                        }
                    ]
                },
                "custodian": {
                    "identifier": {
                        "system": "https://fhir.nhs.uk/Id/ods-organization-code",
                        "value": "699X0"
                    },
                    "type": "Organization"
                },
                "date": "2019-05-14T10:24:17+00:00",
                "identifier": [
                    {
                        "type": {
                            "coding": [
                                {
                                    "code": "FILL",
                                    "system": "http://terminology.hl7.org/CodeSystem/v2-0203"
                                }
                            ]
                        },
                        "value": "190000041:27491"
                    }
                ],
                "status": "current",
                "subject": {
                    "identifier": {
                        "assigner": {
                            "identifier": {
                                "system": "https://fhir.nhs.uk/Id/ods-organization-code",
                                "value": "X24"
                            }
                        },
                        "system": "https://fhir.nhs.uk/Id/nhs-number",
                        "type": {
                            "coding": [
                                {
                                    "code": "NH",
                                    "system": "http://terminology.hl7.org/CodeSystem/v2-0203"
                                }
                            ]
                        },
                        "value": "9737383257"
                    },
                    "reference": "urn:uuid:672b58c8-8a53-40bf-8c94-fdfa2b258315"
                },
                "type": {
                    "coding": [
                        {
                            "code": "823781000000108",
                            "display": "MDT (multidisciplinary team) letter",
                            "system": "http://snomed.info/sct"
                        }
                    ]
                }
            }
        },
        {
            "fullUrl": "urn:uuid:3302b2bd-0ea7-4abd-bd2f-8748b2ea424f",
            "resource": {
                "resourceType": "Observation",
                "code": {
                    "coding": [
                        {
                            "code": "RESLT",
                            "display": "Result",
                            "system": "L"
                        }
                    ]
                },
                "effectiveDateTime": "2019-05-14T10:24:17+00:00",
                "identifier": [
                    {
                        "type": {
                            "coding": [
                                {
                                    "code": "FILL",
                                    "system": "http://terminology.hl7.org/CodeSystem/v2-0203"
                                }
                            ]
                        },
                        "value": "190000041:27491"
                    }
                ],
                "performer": [
                    {
                        "identifier": {
                            "system": "https://fhir.nhs.uk/Id/ods-organization-code",
                            "value": "699X0"
                        },
                        "type": "Organization"
                    }
                ],
                "status": "final",
                "subject": {
                    "identifier": {
                        "assigner": {
                            "identifier": {
                                "system": "https://fhir.nhs.uk/Id/ods-organization-code",
                                "value": "X24"
                            }
                        },
                        "system": "https://fhir.nhs.uk/Id/nhs-number",
                        "type": {
                            "coding": [
                                {
                                    "code": "NH",
                                    "system": "http://terminology.hl7.org/CodeSystem/v2-0203"
                                }
                            ]
                        },
                        "value": "9737383257"
                    },
                    "reference": "urn:uuid:672b58c8-8a53-40bf-8c94-fdfa2b258315"
                },
                "valueString": "dhjhd"
            }
        },
        {
            "fullUrl": "urn:uuid:0f087f96-d451-425f-b170-b9db831a29df",
            "resource": {
                "resourceType": "Observation",
                "code": {
                    "coding": [
                        {
                            "code": "GRFALN1",
                            "display": "AlphaNumeric Generic Result Field 1",
                            "system": "L"
                        }
                    ]
                },
                "effectiveDateTime": "2019-05-14T10:23:35+00:00",
                "identifier": [
                    {
                        "type": {
                            "coding": [
                                {
                                    "code": "FILL",
                                    "system": "http://terminology.hl7.org/CodeSystem/v2-0203"
                                }
                            ]
                        },
                        "value": "190000041:27491"
                    }
                ],
                "performer": [
                    {
                        "identifier": {
                            "system": "https://fhir.nhs.uk/Id/ods-organization-code",
                            "value": "699X0"
                        },
                        "type": "Organization"
                    }
                ],
                "status": "final",
                "subject": {
                    "identifier": {
                        "assigner": {
                            "identifier": {
                                "system": "https://fhir.nhs.uk/Id/ods-organization-code",
                                "value": "X24"
                            }
                        },
                        "system": "https://fhir.nhs.uk/Id/nhs-number",
                        "type": {
                            "coding": [
                                {
                                    "code": "NH",
                                    "system": "http://terminology.hl7.org/CodeSystem/v2-0203"
                                }
                            ]
                        },
                        "value": "9737383257"
                    },
                    "reference": "urn:uuid:672b58c8-8a53-40bf-8c94-fdfa2b258315"
                },
                "valueString": "234dfsgsg"
            }
        },
        {
            "fullUrl": "urn:uuid:cf6ca330-08e0-446f-b0c8-6a04674c4570",
            "resource": {
                "resourceType": "Binary",
                "contentType": "application/pdf",
                "data": "JVBERi0xLjMKJeLjz9MKMiAwIG9iago8PC..."
            }
        },
        {
            "fullUrl": "urn:uuid:0ea7e229-7f34-468c-8ef9-a863838d3fe0",
            "resource": {
                "resourceType": "DocumentReference",
                "content": [
                    {
                        "attachment": {
                            "contentType": "application/pdf",
                            "url": "urn:uuid:cf6ca330-08e0-446f-b0c8-6a04674c4570"
                        }
                    }
                ],
                "context": {
                    "period": {
                        "end": "2019-05-14T10:23:35+00:00",
                        "start": "2019-05-14T10:23:35+00:00"
                    },
                    "related": [
                        {
                            "identifier": {
                                "type": {
                                    "coding": [
                                        {
                                            "code": "FILL",
                                            "system": "http://terminology.hl7.org/CodeSystem/v2-0203"
                                        }
                                    ]
                                },
                                "value": "190000041:27491"
                            },
                            "reference": "urn:uuid:902469ef-7caa-4057-8987-0010344497e3",
                            "type": "DiagnosticReport"
                        }
                    ]
                },
                "custodian": {
                    "identifier": {
                        "system": "https://fhir.nhs.uk/Id/ods-organization-code",
                        "value": "699X0"
                    },
                    "type": "Organization"
                },
                "date": "2019-05-14T10:23:35+00:00",
                "identifier": [
                    {
                        "type": {
                            "coding": [
                                {
                                    "code": "FILL",
                                    "system": "http://terminology.hl7.org/CodeSystem/v2-0203"
                                }
                            ]
                        },
                        "value": "190000041:27491"
                    }
                ],
                "status": "current",
                "subject": {
                    "identifier": {
                        "assigner": {
                            "identifier": {
                                "system": "https://fhir.nhs.uk/Id/ods-organization-code",
                                "value": "X24"
                            }
                        },
                        "system": "https://fhir.nhs.uk/Id/nhs-number",
                        "type": {
                            "coding": [
                                {
                                    "code": "NH",
                                    "system": "http://terminology.hl7.org/CodeSystem/v2-0203"
                                }
                            ]
                        },
                        "value": "9737383257"
                    },
                    "reference": "urn:uuid:672b58c8-8a53-40bf-8c94-fdfa2b258315"
                },
                "type": {
                    "coding": [
                        {
                            "code": "MOLT",
                            "display": "MOL TEST NAME",
                            "system": "L"
                        }
                    ]
                }
            }
        },
        {
            "fullUrl": "urn:uuid:97451e2e-df72-4934-afce-774d5538f733",
            "resource": {
                "resourceType": "DocumentReference",
                "content": [
                    {
                        "attachment": {
                            "url": "http://documents.example.com/document123.pdf"
                        }
                    }
                ],
                "context": {
                    "period": {
                        "end": "2019-05-14T10:23:35+00:00",
                        "start": "2019-05-14T10:23:35+00:00"
                    },
                    "related": [
                        {
                            "identifier": {
                                "type": {
                                    "coding": [
                                        {
                                            "code": "FILL",
                                            "system": "http://terminology.hl7.org/CodeSystem/v2-0203"
                                        }
                                    ]
                                },
                                "value": "190000041:27491"
                            },
                            "reference": "urn:uuid:902469ef-7caa-4057-8987-0010344497e3",
                            "type": "DiagnosticReport"
                        }
                    ]
                },
                "custodian": {
                    "identifier": {
                        "system": "https://fhir.nhs.uk/Id/ods-organization-code",
                        "value": "699X0"
                    },
                    "type": "Organization"
                },
                "date": "2019-05-14T10:23:35+00:00",
                "identifier": [
                    {
                        "type": {
                            "coding": [
                                {
                                    "code": "FILL",
                                    "system": "http://terminology.hl7.org/CodeSystem/v2-0203"
                                }
                            ]
                        },
                        "value": "190000041:27491"
                    }
                ],
                "status": "current",
                "subject": {
                    "identifier": {
                        "assigner": {
                            "identifier": {
                                "system": "https://fhir.nhs.uk/Id/ods-organization-code",
                                "value": "X24"
                            }
                        },
                        "system": "https://fhir.nhs.uk/Id/nhs-number",
                        "type": {
                            "coding": [
                                {
                                    "code": "NH",
                                    "system": "http://terminology.hl7.org/CodeSystem/v2-0203"
                                }
                            ]
                        },
                        "value": "9737383257"
                    },
                    "reference": "urn:uuid:672b58c8-8a53-40bf-8c94-fdfa2b258315"
                },
                "type": {
                    "coding": [
                        {
                            "code": "MOLT",
                            "display": "MOL TEST NAME",
                            "system": "L"
                        }
                    ]
                }
            }
        },
        {
            "fullUrl": "urn:uuid:38b706ea-a807-4165-8586-96e148784378",
            "resource": {
                "resourceType": "Specimen",
                "identifier": [
                    {
                        "type": {
                            "coding": [
                                {
                                    "code": "PLAC",
                                    "system": "http://terminology.hl7.org/CodeSystem/v2-0203"
                                }
                            ]
                        },
                        "value": "190000041:27491"
                    }
                ],
                "receivedTime": "2019-05-14T10:20:00+00:00",
                "status": "unavailable",
                "subject": {
                    "identifier": {
                        "assigner": {
                            "identifier": {
                                "system": "https://fhir.nhs.uk/Id/ods-organization-code",
                                "value": "X24"
                            }
                        },
                        "system": "https://fhir.nhs.uk/Id/nhs-number",
                        "type": {
                            "coding": [
                                {
                                    "code": "NH",
                                    "system": "http://terminology.hl7.org/CodeSystem/v2-0203"
                                }
                            ]
                        },
                        "value": "9737383257"
                    },
                    "reference": "urn:uuid:672b58c8-8a53-40bf-8c94-fdfa2b258315"
                }
            }
        },
        {
            "fullUrl": "urn:uuid:902469ef-7caa-4057-8987-0010344497e3",
            "resource": {
                "resourceType": "DiagnosticReport",
                "category": [
                    {
                        "coding": [
                            {
                                "code": "GE",
                                "system": "http://terminology.hl7.org/CodeSystem/v2-0074"
                            }
                        ]
                    }
                ],
                "code": {
                    "coding": [
                        {
                            "code": "MOLT",
                            "display": "MOL TEST NAME",
                            "system": "L"
                        }
                    ]
                },
                "effectiveDateTime": "2019-05-14T10:20:00+00:00",
                "extension": [
                    {
                        "extension": [
                            {
                                "url": "reference",
                                "valueReference": {
                                    "display": "MDT (multidisciplinary team) letter",
                                    "reference": "urn:uuid:89c13946-808a-441c-9a64-f1478312a584",
                                    "type": "DocumentReference"
                                }
                            },
                            {
                                "url": "type",
                                "valueCodeableConcept": {
                                    "coding": [
                                        {
                                            "code": "SCI",
                                            "system": "http://hl7.org/fhir/diagnosticreport-relevant-information-types"
                                        }
                                    ]
                                }
                            }
                        ],
                        "url": "http://hl7.org/fhir/5.0/StructureDefinition/extension-DiagnosticReport.supportingInfo"
                    },
                    {
                        "extension": [
                            {
                                "url": "reference",
                                "valueReference": {
                                    "display": "MOL TEST NAME",
                                    "reference": "urn:uuid:0ea7e229-7f34-468c-8ef9-a863838d3fe0",
                                    "type": "DocumentReference"
                                }
                            },
                            {
                                "url": "type",
                                "valueCodeableConcept": {
                                    "coding": [
                                        {
                                            "code": "SCI",
                                            "system": "http://hl7.org/fhir/diagnosticreport-relevant-information-types"
                                        }
                                    ]
                                }
                            }
                        ],
                        "url": "http://hl7.org/fhir/5.0/StructureDefinition/extension-DiagnosticReport.supportingInfo"
                    },
                    {
                        "extension": [
                            {
                                "url": "reference",
                                "valueReference": {
                                    "display": "MOL TEST NAME",
                                    "reference": "urn:uuid:97451e2e-df72-4934-afce-774d5538f733",
                                    "type": "DocumentReference"
                                }
                            },
                            {
                                "url": "type",
                                "valueCodeableConcept": {
                                    "coding": [
                                        {
                                            "code": "SCI",
                                            "system": "http://hl7.org/fhir/diagnosticreport-relevant-information-types"
                                        }
                                    ]
                                }
                            }
                        ],
                        "url": "http://hl7.org/fhir/5.0/StructureDefinition/extension-DiagnosticReport.supportingInfo"
                    }
                ],
                "identifier": [
                    {
                        "type": {
                            "coding": [
                                {
                                    "code": "FILL",
                                    "system": "http://terminology.hl7.org/CodeSystem/v2-0203"
                                }
                            ]
                        },
                        "value": "190000041:27491"
                    }
                ],
                "issued": "2019-05-14T10:24:17+00:00",
                "performer": [
                    {
                        "extension": [
                            {
                                "url": "http://hl7.org/fhir/StructureDefinition/event-performerFunction",
                                "valueCodeableConcept": {
                                    "coding": [
                                        {
                                            "code": "SPRF",
                                            "system": "http://terminology.hl7.org/CodeSystem/v3-ParticipationType"
                                        }
                                    ]
                                }
                            }
                        ]
                    },
                    {
                        "display": "NHS North West Genomics",
                        "identifier": {
                            "system": "https://fhir.nhs.uk/Id/ods-organization-code",
                            "value": "699X0"
                        },
                        "type": "Organization"
                    }
                ],
                "result": [
                    {
                        "display": "INTERPRETATION",
                        "reference": "urn:uuid:fee60071-d8fc-4474-b4c7-f3f66a336292",
                        "type": "Observation"
                    },
                    {
                        "display": "Reason for testing",
                        "reference": "urn:uuid:5f55ad09-aaae-44d7-a3a3-116a9bed4167",
                        "type": "Observation"
                    },
                    {
                        "display": "Test Methodology",
                        "reference": "urn:uuid:782534b2-cefc-48db-b418-229c77089ba2",
                        "type": "Observation"
                    },
                    {
                        "display": "Result summary",
                        "reference": "urn:uuid:17c58e9c-55b2-497a-8af9-b0d79bfb51be",
                        "type": "Observation"
                    },
                    {
                        "display": "Patient phenotype",
                        "reference": "urn:uuid:f4f010bb-2a06-44a2-a4f3-3760e943113d",
                        "type": "Observation"
                    },
                    {
                        "display": "Follow-up",
                        "reference": "urn:uuid:8b0a85c7-278c-4e52-bb92-52be242da357",
                        "type": "Observation"
                    },
                    {
                        "display": "Result",
                        "reference": "urn:uuid:3302b2bd-0ea7-4abd-bd2f-8748b2ea424f",
                        "type": "Observation"
                    },
                    {
                        "display": "AlphaNumeric Generic Result Field 1",
                        "reference": "urn:uuid:0f087f96-d451-425f-b170-b9db831a29df",
                        "type": "Observation"
                    }
                ],
                "specimen": [
                    {
                        "reference": "urn:uuid:38b706ea-a807-4165-8586-96e148784378",
                        "type": "Specimen"
                    }
                ],
                "status": "final",
                "subject": {
                    "identifier": {
                        "assigner": {
                            "identifier": {
                                "system": "https://fhir.nhs.uk/Id/ods-organization-code",
                                "value": "X24"
                            }
                        },
                        "system": "https://fhir.nhs.uk/Id/nhs-number",
                        "type": {
                            "coding": [
                                {
                                    "code": "NH",
                                    "system": "http://terminology.hl7.org/CodeSystem/v2-0203"
                                }
                            ]
                        },
                        "value": "9737383257"
                    },
                    "reference": "urn:uuid:672b58c8-8a53-40bf-8c94-fdfa2b258315"
                }
            }
        }
    ],
    "identifier": {
        "value": "5051095-201905141025"
    },
    "timestamp": "2019-05-14T10:25:27+00:00",
    "type": "message"
}