{
    "resourceType": "Bundle",
    "entry": [
        {
            "fullUrl": "urn:uuid:9a674586-d4e8-460a-bb0a-d7c9e943bdf7",
            "resource": {
                "resourceType": "MessageHeader",
                "destination": [
                    {
                        "endpoint": "https//fhir.mft.nhs.uk/Endpoint/EPIC",
                        "receiver": {
                            "identifier": {
                                "system": "https://fhir.nhs.uk/Id/ods-organization-code",
                                "value": "699X0"
                            }
                        }
                    }
                ],
                "eventCoding": {
                    "code": "T02",
                    "system": "http://terminology.hl7.org/CodeSystem/v2-0003"
                },
                "focus": [
                    {
                        "reference": "urn:uuid:cc44c73d-36fe-4123-ae08-696fb4289009"
                    }
                ],
                "sender": {
                    "identifier": {
                        "system": "https://fhir.nhs.uk/Id/ods-organization-code",
                        "value": "699X0"
                    }
                },
                "source": {
                    "endpoint": "https://fhir.nwgenomics.nhs.uk/Endpoint/IGENE",
                    "software": "NW GLH"
                }
            }
        },
        {
            "fullUrl": "urn:uuid:1945f670-a472-4adb-9180-5def3cf0ae5f",
            "resource": {
                "resourceType": "Patient",
                "address": [
                    {
                        "postalCode": "M13 9PL"
                    }
                ],
                "birthDate": "1972-09-21",
                "gender": "female",
                "identifier": [
                    {
                        "system": "https://fhir.nhs.uk/Id/nhs-number",
                        "type": {
                            "coding": [
                                {
                                    "code": "NH",
                                    "system": "http://terminology.hl7.org/CodeSystem/v2-0203"
                                }
                            ]
                        },
                        "value": "9737383192"
                    },
                    {
                        "assigner": {
                            "identifier": {
                                "system": "https://fhir.nhs.uk/Id/ods-organization-code",
                                "value": "R0A"
                            }
                        },
                        "system": "urn:oid:1.2.840.114350.1.13.611.3.7.5.737384.14",
                        "type": {
                            "coding": [
                                {
                                    "code": "MR",
                                    "system": "http://terminology.hl7.org/CodeSystem/v2-0203"
                                }
                            ]
                        },
                        "value": "1234567"
                    }
                ],
                "name": [
                    {
                        "family": "MANCHESTER",
                        "given": [
                            "SANSA"
                        ]
                    }
                ]
            }
        },
        {
            "fullUrl": "urn:uuid:7944bf39-8ba3-4a74-b44d-725b1affd1e4",
            "resource": {
                "resourceType": "DocumentReference",
                "context": {
                    "period": {
                        "end": "2025-10-14T15:59:16+00:00",
                        "start": "2025-10-14T15:59:16+00:00"
                    },
                    "related": [
                        {
                            "identifier": {
                                "assigner": {
                                    "identifier": {
                                        "system": "https://fhir.nhs.uk/Id/ods-organization-code",
                                        "value": "ROA"
                                    }
                                },
                                "system": "urn:oid:1.2.840.114350.1.13.861.1.7.2.798268",
                                "type": {
                                    "coding": [
                                        {
                                            "code": "PLAC",
                                            "system": "http://terminology.hl7.org/CodeSystem/v2-0203"
                                        }
                                    ]
                                },
                                "value": "1601716017"
                            },
                            "reference": "urn:uuid:726b59de-2339-416a-8b13-73407606ee20",
                            "type": "ServiceRequest"
                        },
                        {
                            "identifier": {
                                "assigner": {
                                    "identifier": {
                                        "system": "https://fhir.nhs.uk/Id/ods-organization-code",
                                        "value": "699X0"
                                    }
                                },
                                "system": "https://fhir.nwgenomics.nhs.uk/iGene/ReportIdentifier",
                                "type": {
                                    "coding": [
                                        {
                                            "code": "FILL",
                                            "system": "http://terminology.hl7.org/CodeSystem/v2-0203"
                                        }
                                    ]
                                },
                                "value": "T25-4106"
                            },
                            "reference": "urn:uuid:cc44c73d-36fe-4123-ae08-696fb4289009",
                            "type": "DiagnosticReport"
                        }
                    ],
                    "sourcePatientInfo": {
                        "identifier": {
                            "assigner": {
                                "identifier": {
                                    "system": "https://fhir.nhs.uk/Id/ods-organization-code",
                                    "value": "R0A"
                                }
                            },
                            "system": "urn:oid:1.2.840.114350.1.13.611.3.7.5.737384.14",
                            "type": {
                                "coding": [
                                    {
                                        "code": "MR",
                                        "system": "http://terminology.hl7.org/CodeSystem/v2-0203"
                                    }
                                ]
                            },
                            "value": "1234567"
                        }
                    }
                },
                "custodian": {
                    "identifier": {
                        "system": "https://fhir.nhs.uk/Id/ods-organization-code",
                        "value": "699X0"
                    },
                    "type": "Organization"
                },
                "date": "2025-10-14T15:59:16+00:00",
                "identifier": [
                    {
                        "assigner": {
                            "identifier": {
                                "system": "https://fhir.nhs.uk/Id/ods-organization-code",
                                "value": "699X0"
                            }
                        },
                        "system": "https://fhir.nwgenomics.nhs.uk/iGene/ReportIdentifier",
                        "type": {
                            "coding": [
                                {
                                    "code": "FILL",
                                    "system": "http://terminology.hl7.org/CodeSystem/v2-0203"
                                }
                            ]
                        },
                        "value": "T25-4106"
                    }
                ],
                "status": "current",
                "subject": {
                    "identifier": {
                        "system": "https://fhir.nhs.uk/Id/nhs-number",
                        "type": {
                            "coding": [
                                {
                                    "code": "NH",
                                    "system": "http://terminology.hl7.org/CodeSystem/v2-0203"
                                }
                            ]
                        },
                        "value": "9737383192"
                    },
                    "reference": "urn:uuid:1945f670-a472-4adb-9180-5def3cf0ae5f"
                },
                "type": {
                    "coding": [
                        {
                            "code": "1054161000000101",
                            "display": "Genetic report",
                            "system": "http://snomed.info/sct"
                        }
                    ]
                }
            }
        },
        {
            "fullUrl": "urn:uuid:4ceb7f21-3be6-42d4-8b9f-c7e5c64a32be",
            "resource": {
                "resourceType": "Specimen",
                "identifier": [
                    {
                        "type": {
                            "coding": [
                                {
                                    "code": "PLAC",
                                    "system": "http://terminology.hl7.org/CodeSystem/v2-0203"
                                }
                            ]
                        },
                        "value": "T25-4106"
                    }
                ],
                "receivedTime": "2025-10-06T00:00:00+00:00",
                "status": "unavailable",
                "subject": {
                    "identifier": {
                        "system": "https://fhir.nhs.uk/Id/nhs-number",
                        "type": {
                            "coding": [
                                {
                                    "code": "NH",
                                    "system": "http://terminology.hl7.org/CodeSystem/v2-0203"
                                }
                            ]
                        },
                        "value": "9737383192"
                    },
                    "reference": "urn:uuid:1945f670-a472-4adb-9180-5def3cf0ae5f"
                }
            }
        },
        {
            "fullUrl": "urn:uuid:726b59de-2339-416a-8b13-73407606ee20",
            "resource": {
                "resourceType": "ServiceRequest",
                "category": [
                    {
                        "coding": [
                            {
                                "code": "116148004",
                                "system": "http://snomed.info/sct"
                            }
                        ]
                    }
                ],
                "code": {
                    "coding": [
                        {
                            "code": "R125.1",
                            "display": "Thoracic aortic aneurysm or dissection (WES or Medium Panel)",
                            "system": "https://fhir.nhs.uk/CodeSystem/England-GenomicTestDirectory"
                        }
                    ]
                },
                "identifier": [
                    {
                        "assigner": {
                            "identifier": {
                                "system": "https://fhir.nhs.uk/Id/ods-organization-code",
                                "value": "ROA"
                            }
                        },
                        "system": "urn:oid:1.2.840.114350.1.13.861.1.7.2.798268",
                        "type": {
                            "coding": [
                                {
                                    "code": "PLAC",
                                    "system": "http://terminology.hl7.org/CodeSystem/v2-0203"
                                }
                            ]
                        },
                        "value": "1601716017"
                    }
                ],
                "intent": "order",
                "reasonCode": [
                    {
                        "coding": [
                            {
                                "code": "R125",
                                "system": "https://fhir.nwgenomics.nhs.uk/CodeSystem/GenomicClinicalIndication"
                            }
                        ]
                    }
                ],
                "requester": {
                    "display": "Manchester University NHS Foundation Trust",
                    "identifier": {
                        "system": "https://fhir.nhs.uk/Id/ods-organization-code",
                        "value": "R0A"
                    },
                    "type": "Organization"
                },
                "specimen": [
                    {
                        "reference": "urn:uuid:4ceb7f21-3be6-42d4-8b9f-c7e5c64a32be",
                        "type": "Specimen"
                    }
                ],
                "status": "completed",
                "subject": {
                    "identifier": {
                        "system": "https://fhir.nhs.uk/Id/nhs-number",
                        "type": {
                            "coding": [
                                {
                                    "code": "NH",
                                    "system": "http://terminology.hl7.org/CodeSystem/v2-0203"
                                }
                            ]
                        },
                        "value": "9737383192"
                    },
                    "reference": "urn:uuid:1945f670-a472-4adb-9180-5def3cf0ae5f"
                }
            }
        },
        {
            "fullUrl": "urn:uuid:cc44c73d-36fe-4123-ae08-696fb4289009",
            "resource": {
                "resourceType": "DiagnosticReport",
                "basedOn": [
                    {
                        "identifier": {
                            "assigner": {
                                "identifier": {
                                    "system": "https://fhir.nhs.uk/Id/ods-organization-code",
                                    "value": "ROA"
                                }
                            },
                            "system": "urn:oid:1.2.840.114350.1.13.861.1.7.2.798268",
                            "type": {
                                "coding": [
                                    {
                                        "code": "PLAC",
                                        "system": "http://terminology.hl7.org/CodeSystem/v2-0203"
                                    }
                                ]
                            },
                            "value": "1601716017"
                        },
                        "reference": "urn:uuid:726b59de-2339-416a-8b13-73407606ee20",
                        "type": "ServiceRequest"
                    }
                ],
                "category": [
                    {
                        "coding": [
                            {
                                "code": "GE",
                                "system": "http://terminology.hl7.org/CodeSystem/v2-0074"
                            }
                        ]
                    }
                ],
                "code": {
                    "coding": [
                        {
                            "code": "R125_Cardiology",
                            "display": "PANEL : R125.1, R125.2 - Thoracic aortic aneurysm and dissection v1.2",
                            "system": "https://fhir.nwgenomics.nhs.uk/CodeSystem/IGEAP"
                        },
                        {
                            "code": "R125.1",
                            "display": "Thoracic aortic aneurysm or dissection (WES or Medium Panel)",
                            "system": "https://fhir.nhs.uk/CodeSystem/England-GenomicTestDirectory"
                        }
                    ]
                },
                "effectiveDateTime": "2025-10-14T15:59:16+00:00",
                "extension": [
                    {
                        "url": "http://hl7.org/fhir/StructureDefinition/workflow-supportingInfo",
                        "valueReference": {
                            "display": "Genetic report",
                            "reference": "urn:uuid:7944bf39-8ba3-4a74-b44d-725b1affd1e4",
                            "type": "DocumentReference"
                        }
                    }
                ],
                "identifier": [
                    {
                        "assigner": {
                            "identifier": {
                                "system": "https://fhir.nhs.uk/Id/ods-organization-code",
                                "value": "699X0"
                            }
                        },
                        "system": "https://fhir.nwgenomics.nhs.uk/iGene/ReportIdentifier",
                        "type": {
                            "coding": [
                                {
                                    "code": "FILL",
                                    "system": "http://terminology.hl7.org/CodeSystem/v2-0203"
                                }
                            ]
                        },
                        "value": "T25-4106"
                    }
                ],
                "issued": "2025-10-14T15:59:16+00:00",
                "performer": [
                    {
                        "display": "NHS North West Genomics",
                        "identifier": {
                            "system": "https://fhir.nhs.uk/Id/ods-organization-code",
                            "value": "699X0"
                        },
                        "type": "Organization"
                    }
                ],
                "presentedForm": [
                    {}
                ],
                "resultsInterpreter": [
                    {
                        "display": "Jonathan Edgerley"
                    }
                ],
                "specimen": [
                    {
                        "reference": "urn:uuid:4ceb7f21-3be6-42d4-8b9f-c7e5c64a32be",
                        "type": "Specimen"
                    }
                ],
                "status": "final",
                "subject": {
                    "identifier": {
                        "system": "https://fhir.nhs.uk/Id/nhs-number",
                        "type": {
                            "coding": [
                                {
                                    "code": "NH",
                                    "system": "http://terminology.hl7.org/CodeSystem/v2-0203"
                                }
                            ]
                        },
                        "value": "9737383192"
                    },
                    "reference": "urn:uuid:1945f670-a472-4adb-9180-5def3cf0ae5f"
                }
            }
        }
    ],
    "identifier": {
        "value": "ORIE-251014-9"
    },
    "timestamp": "2025-10-14T15:59:42+00:00",
    "type": "message"
}