{
    "resourceType": "Bundle",
    "entry": [
        {
            "fullUrl": "urn:uuid:d0a24074-c621-404e-ae8b-5a6cd6de6f99",
            "resource": {
                "resourceType": "MessageHeader",
                "destination": [
                    {
                        "endpoint": "https//fhir.mft.nhs.uk/Endpoint/EPIC",
                        "receiver": {
                            "identifier": {
                                "system": "https://fhir.nhs.uk/Id/ods-organization-code",
                                "value": "699X0"
                            }
                        }
                    }
                ],
                "eventCoding": {
                    "code": "T02",
                    "system": "http://terminology.hl7.org/CodeSystem/v2-0003"
                },
                "focus": [
                    {
                        "reference": "urn:uuid:c9266274-3862-409b-88fb-635080f6851a"
                    }
                ],
                "sender": {
                    "identifier": {
                        "system": "https://fhir.nhs.uk/Id/ods-organization-code",
                        "value": "699X0"
                    }
                },
                "source": {
                    "endpoint": "https://fhir.nwgenomics.nhs.uk/Endpoint/IGENE",
                    "software": "NW GLH"
                }
            }
        },
        {
            "fullUrl": "urn:uuid:b71e1363-f128-4fd3-bcb7-c074d0d94c7f",
            "resource": {
                "resourceType": "Patient",
                "address": [
                    {
                        "postalCode": "L18 9TN"
                    }
                ],
                "birthDate": "1942-06-18",
                "gender": "male",
                "identifier": [
                    {
                        "system": "https://fhir.nhs.uk/Id/nhs-number",
                        "type": {
                            "coding": [
                                {
                                    "code": "NH",
                                    "system": "http://terminology.hl7.org/CodeSystem/v2-0203"
                                }
                            ]
                        },
                        "value": "9737383206"
                    }
                ],
                "name": [
                    {
                        "family": "LIVERPOOL",
                        "given": [
                            "Ned"
                        ]
                    }
                ]
            }
        },
        {
            "fullUrl": "urn:uuid:8cc668fc-9da5-4ccc-913b-0f3f40f87a17",
            "resource": {
                "resourceType": "Observation",
                "code": {
                    "coding": [
                        {
                            "code": "53577-3",
                            "display": "Reason for study",
                            "system": "http://loinc.org"
                        }
                    ]
                },
                "identifier": [
                    {
                        "assigner": {
                            "identifier": {
                                "system": "https://fhir.nhs.uk/Id/ods-organization-code",
                                "value": "699X0"
                            }
                        },
                        "system": "https://fhir.nwgenomics.nhs.uk/iGene/ReportIdentifier",
                        "type": {
                            "coding": [
                                {
                                    "code": "FILL",
                                    "system": "http://terminology.hl7.org/CodeSystem/v2-0203"
                                }
                            ]
                        },
                        "value": "Gen825750"
                    }
                ],
                "performer": [
                    {
                        "identifier": {
                            "system": "https://fhir.nhs.uk/Id/ods-organization-code",
                            "value": "699X0"
                        },
                        "type": "Organization"
                    }
                ],
                "status": "final",
                "subject": {
                    "identifier": {
                        "system": "https://fhir.nhs.uk/Id/nhs-number",
                        "type": {
                            "coding": [
                                {
                                    "code": "NH",
                                    "system": "http://terminology.hl7.org/CodeSystem/v2-0203"
                                }
                            ]
                        },
                        "value": "9737383206"
                    },
                    "reference": "urn:uuid:b71e1363-f128-4fd3-bcb7-c074d0d94c7f"
                },
                "valueString": "Patient may have Lynch Syndrome"
            }
        },
        {
            "fullUrl": "urn:uuid:95d3745b-ad04-4b29-a132-da974af22770",
            "resource": {
                "resourceType": "Observation",
                "code": {
                    "coding": [
                        {
                            "code": "51967-8",
                            "display": "Genetic disease(s) assessed",
                            "system": "http://loinc.org"
                        }
                    ]
                },
                "identifier": [
                    {
                        "assigner": {
                            "identifier": {
                                "system": "https://fhir.nhs.uk/Id/ods-organization-code",
                                "value": "699X0"
                            }
                        },
                        "system": "https://fhir.nwgenomics.nhs.uk/iGene/ReportIdentifier",
                        "type": {
                            "coding": [
                                {
                                    "code": "FILL",
                                    "system": "http://terminology.hl7.org/CodeSystem/v2-0203"
                                }
                            ]
                        },
                        "value": "Gen825750"
                    }
                ],
                "performer": [
                    {
                        "identifier": {
                            "system": "https://fhir.nhs.uk/Id/ods-organization-code",
                            "value": "699X0"
                        },
                        "type": "Organization"
                    }
                ],
                "status": "final",
                "subject": {
                    "identifier": {
                        "system": "https://fhir.nhs.uk/Id/nhs-number",
                        "type": {
                            "coding": [
                                {
                                    "code": "NH",
                                    "system": "http://terminology.hl7.org/CodeSystem/v2-0203"
                                }
                            ]
                        },
                        "value": "9737383206"
                    },
                    "reference": "urn:uuid:b71e1363-f128-4fd3-bcb7-c074d0d94c7f"
                },
                "valueCodeableConcept": {
                    "coding": [
                        {
                            "code": "C0009405",
                            "display": "Lynch syndrome",
                            "system": "MedGen-Dis"
                        }
                    ]
                }
            }
        },
        {
            "fullUrl": "urn:uuid:ab823c43-f382-4762-a843-ea11d7c81b08",
            "resource": {
                "resourceType": "Observation",
                "code": {
                    "coding": [
                        {
                            "code": "51958-7",
                            "display": "Transcript reference sequence [Identifier]",
                            "system": "http://loinc.org"
                        }
                    ]
                },
                "identifier": [
                    {
                        "assigner": {
                            "identifier": {
                                "system": "https://fhir.nhs.uk/Id/ods-organization-code",
                                "value": "699X0"
                            }
                        },
                        "system": "https://fhir.nwgenomics.nhs.uk/iGene/ReportIdentifier",
                        "type": {
                            "coding": [
                                {
                                    "code": "FILL",
                                    "system": "http://terminology.hl7.org/CodeSystem/v2-0203"
                                }
                            ]
                        },
                        "value": "Gen825750"
                    }
                ],
                "performer": [
                    {
                        "identifier": {
                            "system": "https://fhir.nhs.uk/Id/ods-organization-code",
                            "value": "699X0"
                        },
                        "type": "Organization"
                    }
                ],
                "status": "final",
                "subject": {
                    "identifier": {
                        "system": "https://fhir.nhs.uk/Id/nhs-number",
                        "type": {
                            "coding": [
                                {
                                    "code": "NH",
                                    "system": "http://terminology.hl7.org/CodeSystem/v2-0203"
                                }
                            ]
                        },
                        "value": "9737383206"
                    },
                    "reference": "urn:uuid:b71e1363-f128-4fd3-bcb7-c074d0d94c7f"
                },
                "valueCodeableConcept": {
                    "coding": [
                        {
                            "code": "NM_000249",
                            "display": "NM_000249",
                            "system": "http://www.ncbi.nlm.nih.gov/refseq"
                        }
                    ]
                }
            }
        },
        {
            "fullUrl": "urn:uuid:5c56e9f6-a012-44cd-b3be-1b5dc252e6e5",
            "resource": {
                "resourceType": "Observation",
                "code": {
                    "coding": [
                        {
                            "code": "48018-6",
                            "display": "Gene studied",
                            "system": "http://loinc.org"
                        }
                    ]
                },
                "identifier": [
                    {
                        "assigner": {
                            "identifier": {
                                "system": "https://fhir.nhs.uk/Id/ods-organization-code",
                                "value": "699X0"
                            }
                        },
                        "system": "https://fhir.nwgenomics.nhs.uk/iGene/ReportIdentifier",
                        "type": {
                            "coding": [
                                {
                                    "code": "FILL",
                                    "system": "http://terminology.hl7.org/CodeSystem/v2-0203"
                                }
                            ]
                        },
                        "value": "Gen825750"
                    }
                ],
                "performer": [
                    {
                        "identifier": {
                            "system": "https://fhir.nhs.uk/Id/ods-organization-code",
                            "value": "699X0"
                        },
                        "type": "Organization"
                    }
                ],
                "status": "final",
                "subject": {
                    "identifier": {
                        "system": "https://fhir.nhs.uk/Id/nhs-number",
                        "type": {
                            "coding": [
                                {
                                    "code": "NH",
                                    "system": "http://terminology.hl7.org/CodeSystem/v2-0203"
                                }
                            ]
                        },
                        "value": "9737383206"
                    },
                    "reference": "urn:uuid:b71e1363-f128-4fd3-bcb7-c074d0d94c7f"
                },
                "valueCodeableConcept": {
                    "coding": [
                        {
                            "code": "7127",
                            "display": "MLH1",
                            "system": "http://www.genenames.org"
                        }
                    ]
                }
            }
        },
        {
            "fullUrl": "urn:uuid:2a9bd478-cd7e-40af-a1d7-7406ef2d9cd4",
            "resource": {
                "resourceType": "Observation",
                "code": {
                    "coding": [
                        {
                            "code": "81293-3",
                            "display": "Description of ranges of DNA sequences examined",
                            "system": "http://loinc.org"
                        }
                    ]
                },
                "identifier": [
                    {
                        "assigner": {
                            "identifier": {
                                "system": "https://fhir.nhs.uk/Id/ods-organization-code",
                                "value": "699X0"
                            }
                        },
                        "system": "https://fhir.nwgenomics.nhs.uk/iGene/ReportIdentifier",
                        "type": {
                            "coding": [
                                {
                                    "code": "FILL",
                                    "system": "http://terminology.hl7.org/CodeSystem/v2-0203"
                                }
                            ]
                        },
                        "value": "Gen825750"
                    }
                ],
                "performer": [
                    {
                        "identifier": {
                            "system": "https://fhir.nhs.uk/Id/ods-organization-code",
                            "value": "699X0"
                        },
                        "type": "Organization"
                    }
                ],
                "status": "final",
                "subject": {
                    "identifier": {
                        "system": "https://fhir.nhs.uk/Id/nhs-number",
                        "type": {
                            "coding": [
                                {
                                    "code": "NH",
                                    "system": "http://terminology.hl7.org/CodeSystem/v2-0203"
                                }
                            ]
                        },
                        "value": "9737383206"
                    },
                    "reference": "urn:uuid:b71e1363-f128-4fd3-bcb7-c074d0d94c7f"
                },
                "valueString": "Bi-directional sequence analysis was performed to test for the presence of a mutation in all coding regions and intron/exon boundaries of the MLH1 gene."
            }
        },
        {
            "fullUrl": "urn:uuid:b1327305-3060-49a2-b2ee-698662b97fcd",
            "resource": {
                "resourceType": "Observation",
                "code": {
                    "coding": [
                        {
                            "code": "51968-6",
                            "display": "Discrete variation analysis overall interpretation",
                            "system": "http://loinc.org"
                        }
                    ]
                },
                "identifier": [
                    {
                        "assigner": {
                            "identifier": {
                                "system": "https://fhir.nhs.uk/Id/ods-organization-code",
                                "value": "699X0"
                            }
                        },
                        "system": "https://fhir.nwgenomics.nhs.uk/iGene/ReportIdentifier",
                        "type": {
                            "coding": [
                                {
                                    "code": "FILL",
                                    "system": "http://terminology.hl7.org/CodeSystem/v2-0203"
                                }
                            ]
                        },
                        "value": "Gen825750"
                    }
                ],
                "performer": [
                    {
                        "identifier": {
                            "system": "https://fhir.nhs.uk/Id/ods-organization-code",
                            "value": "699X0"
                        },
                        "type": "Organization"
                    }
                ],
                "status": "final",
                "subject": {
                    "identifier": {
                        "system": "https://fhir.nhs.uk/Id/nhs-number",
                        "type": {
                            "coding": [
                                {
                                    "code": "NH",
                                    "system": "http://terminology.hl7.org/CodeSystem/v2-0203"
                                }
                            ]
                        },
                        "value": "9737383206"
                    },
                    "reference": "urn:uuid:b71e1363-f128-4fd3-bcb7-c074d0d94c7f"
                },
                "valueCodeableConcept": {
                    "coding": [
                        {
                            "code": "LA6576-8",
                            "display": "Positive",
                            "system": "http://loinc.org"
                        }
                    ]
                }
            }
        },
        {
            "fullUrl": "urn:uuid:833998f3-6461-40d7-97d6-0d78511de23b",
            "resource": {
                "resourceType": "Observation",
                "code": {
                    "coding": [
                        {
                            "code": "83006-7",
                            "display": "Deletion-duplication overall interpretation",
                            "system": "http://loinc.org"
                        }
                    ]
                },
                "identifier": [
                    {
                        "assigner": {
                            "identifier": {
                                "system": "https://fhir.nhs.uk/Id/ods-organization-code",
                                "value": "699X0"
                            }
                        },
                        "system": "https://fhir.nwgenomics.nhs.uk/iGene/ReportIdentifier",
                        "type": {
                            "coding": [
                                {
                                    "code": "FILL",
                                    "system": "http://terminology.hl7.org/CodeSystem/v2-0203"
                                }
                            ]
                        },
                        "value": "Gen825750"
                    }
                ],
                "performer": [
                    {
                        "identifier": {
                            "system": "https://fhir.nhs.uk/Id/ods-organization-code",
                            "value": "699X0"
                        },
                        "type": "Organization"
                    }
                ],
                "status": "final",
                "subject": {
                    "identifier": {
                        "system": "https://fhir.nhs.uk/Id/nhs-number",
                        "type": {
                            "coding": [
                                {
                                    "code": "NH",
                                    "system": "http://terminology.hl7.org/CodeSystem/v2-0203"
                                }
                            ]
                        },
                        "value": "9737383206"
                    },
                    "reference": "urn:uuid:b71e1363-f128-4fd3-bcb7-c074d0d94c7f"
                },
                "valueCodeableConcept": {
                    "coding": [
                        {
                            "code": "LA26803-9",
                            "display": "No deletion duplications detected in studied regions",
                            "system": "http://loinc.org"
                        }
                    ]
                }
            }
        },
        {
            "fullUrl": "urn:uuid:e01a5b47-34be-4667-801c-6a4474e1559a",
            "resource": {
                "resourceType": "Binary",
                "contentType": "application/pdf",
                "data": ""
            }
        },
        {
            "fullUrl": "urn:uuid:0d83d848-d834-499a-9fbb-d32971d1490c",
            "resource": {
                "resourceType": "DocumentReference",
                "content": [
                    {
                        "attachment": {
                            "contentType": "application/pdf",
                            "url": "urn:uuid:e01a5b47-34be-4667-801c-6a4474e1559a"
                        }
                    }
                ],
                "context": {
                    "period": {
                        "end": "2016-08-09T16:50:00+00:00",
                        "start": "2016-08-09T16:50:00+00:00"
                    },
                    "related": [
                        {
                            "identifier": {
                                "assigner": {
                                    "identifier": {
                                        "system": "https://fhir.nhs.uk/Id/ods-organization-code",
                                        "value": "REP"
                                    }
                                },
                                "type": {
                                    "coding": [
                                        {
                                            "code": "PLAC",
                                            "system": "http://terminology.hl7.org/CodeSystem/v2-0203"
                                        }
                                    ]
                                },
                                "value": "LRI-5286710001"
                            },
                            "reference": "urn:uuid:0398cbd9-ba8c-4de1-9ad9-70c898d94171",
                            "type": "ServiceRequest"
                        },
                        {
                            "identifier": {
                                "assigner": {
                                    "identifier": {
                                        "system": "https://fhir.nhs.uk/Id/ods-organization-code",
                                        "value": "699X0"
                                    }
                                },
                                "system": "https://fhir.nwgenomics.nhs.uk/iGene/ReportIdentifier",
                                "type": {
                                    "coding": [
                                        {
                                            "code": "FILL",
                                            "system": "http://terminology.hl7.org/CodeSystem/v2-0203"
                                        }
                                    ]
                                },
                                "value": "Gen825750"
                            },
                            "reference": "urn:uuid:c9266274-3862-409b-88fb-635080f6851a",
                            "type": "DiagnosticReport"
                        }
                    ]
                },
                "custodian": {
                    "identifier": {
                        "system": "https://fhir.nhs.uk/Id/ods-organization-code",
                        "value": "699X0"
                    },
                    "type": "Organization"
                },
                "date": "2016-08-09T16:50:00+00:00",
                "identifier": [
                    {
                        "assigner": {
                            "identifier": {
                                "system": "https://fhir.nhs.uk/Id/ods-organization-code",
                                "value": "699X0"
                            }
                        },
                        "system": "https://fhir.nwgenomics.nhs.uk/iGene/ReportIdentifier",
                        "type": {
                            "coding": [
                                {
                                    "code": "FILL",
                                    "system": "http://terminology.hl7.org/CodeSystem/v2-0203"
                                }
                            ]
                        },
                        "value": "Gen825750"
                    }
                ],
                "status": "current",
                "subject": {
                    "identifier": {
                        "system": "https://fhir.nhs.uk/Id/nhs-number",
                        "type": {
                            "coding": [
                                {
                                    "code": "NH",
                                    "system": "http://terminology.hl7.org/CodeSystem/v2-0203"
                                }
                            ]
                        },
                        "value": "9737383206"
                    },
                    "reference": "urn:uuid:b71e1363-f128-4fd3-bcb7-c074d0d94c7f"
                },
                "type": {
                    "coding": [
                        {
                            "code": "1054161000000101",
                            "display": "Genetic report",
                            "system": "http://snomed.info/sct"
                        }
                    ]
                }
            }
        },
        {
            "fullUrl": "urn:uuid:58fa96cc-0418-42a8-930c-4c8094b8d4c8",
            "resource": {
                "resourceType": "Observation",
                "code": {
                    "coding": [
                        {
                            "code": "62374-4",
                            "display": "Human reference sequence assembly",
                            "system": "http://loinc.org"
                        }
                    ]
                },
                "identifier": [
                    {
                        "assigner": {
                            "identifier": {
                                "system": "https://fhir.nhs.uk/Id/ods-organization-code",
                                "value": "699X0"
                            }
                        },
                        "system": "https://fhir.nwgenomics.nhs.uk/iGene/ReportIdentifier",
                        "type": {
                            "coding": [
                                {
                                    "code": "FILL",
                                    "system": "http://terminology.hl7.org/CodeSystem/v2-0203"
                                }
                            ]
                        },
                        "value": "Gen825750"
                    }
                ],
                "performer": [
                    {
                        "identifier": {
                            "system": "https://fhir.nhs.uk/Id/ods-organization-code",
                            "value": "699X0"
                        },
                        "type": "Organization"
                    }
                ],
                "status": "final",
                "subject": {
                    "identifier": {
                        "system": "https://fhir.nhs.uk/Id/nhs-number",
                        "type": {
                            "coding": [
                                {
                                    "code": "NH",
                                    "system": "http://terminology.hl7.org/CodeSystem/v2-0203"
                                }
                            ]
                        },
                        "value": "9737383206"
                    },
                    "reference": "urn:uuid:b71e1363-f128-4fd3-bcb7-c074d0d94c7f"
                },
                "valueCodeableConcept": {
                    "coding": [
                        {
                            "code": "LA14029-5",
                            "display": "GRCh37",
                            "system": "http://loinc.org"
                        }
                    ]
                }
            }
        },
        {
            "fullUrl": "urn:uuid:0d66b052-5943-4443-8142-f2f6b5ef497f",
            "resource": {
                "resourceType": "Observation",
                "code": {
                    "coding": [
                        {
                            "code": "82115-7",
                            "display": "dbSNP version",
                            "system": "http://loinc.org"
                        }
                    ]
                },
                "identifier": [
                    {
                        "assigner": {
                            "identifier": {
                                "system": "https://fhir.nhs.uk/Id/ods-organization-code",
                                "value": "699X0"
                            }
                        },
                        "system": "https://fhir.nwgenomics.nhs.uk/iGene/ReportIdentifier",
                        "type": {
                            "coding": [
                                {
                                    "code": "FILL",
                                    "system": "http://terminology.hl7.org/CodeSystem/v2-0203"
                                }
                            ]
                        },
                        "value": "Gen825750"
                    }
                ],
                "performer": [
                    {
                        "identifier": {
                            "system": "https://fhir.nhs.uk/Id/ods-organization-code",
                            "value": "699X0"
                        },
                        "type": "Organization"
                    }
                ],
                "status": "final",
                "subject": {
                    "identifier": {
                        "system": "https://fhir.nhs.uk/Id/nhs-number",
                        "type": {
                            "coding": [
                                {
                                    "code": "NH",
                                    "system": "http://terminology.hl7.org/CodeSystem/v2-0203"
                                }
                            ]
                        },
                        "value": "9737383206"
                    },
                    "reference": "urn:uuid:b71e1363-f128-4fd3-bcb7-c074d0d94c7f"
                },
                "valueQuantity": {
                    "system": "http://unitsofmeasure.org",
                    "unit": "Attributes of Discrete Genetic Variants: Report Section 2",
                    "value": 147
                }
            }
        },
        {
            "fullUrl": "urn:uuid:fbbaab4b-ad99-4633-a351-23b1497d33ed",
            "resource": {
                "resourceType": "Observation",
                "code": {
                    "coding": [
                        {
                            "code": "83005-9",
                            "display": "Variant Category",
                            "system": "http://loinc.org"
                        }
                    ]
                },
                "identifier": [
                    {
                        "assigner": {
                            "identifier": {
                                "system": "https://fhir.nhs.uk/Id/ods-organization-code",
                                "value": "699X0"
                            }
                        },
                        "system": "https://fhir.nwgenomics.nhs.uk/iGene/ReportIdentifier",
                        "type": {
                            "coding": [
                                {
                                    "code": "FILL",
                                    "system": "http://terminology.hl7.org/CodeSystem/v2-0203"
                                }
                            ]
                        },
                        "value": "Gen825750"
                    }
                ],
                "performer": [
                    {
                        "identifier": {
                            "system": "https://fhir.nhs.uk/Id/ods-organization-code",
                            "value": "699X0"
                        },
                        "type": "Organization"
                    }
                ],
                "status": "final",
                "subject": {
                    "identifier": {
                        "system": "https://fhir.nhs.uk/Id/nhs-number",
                        "type": {
                            "coding": [
                                {
                                    "code": "NH",
                                    "system": "http://terminology.hl7.org/CodeSystem/v2-0203"
                                }
                            ]
                        },
                        "value": "9737383206"
                    },
                    "reference": "urn:uuid:b71e1363-f128-4fd3-bcb7-c074d0d94c7f"
                },
                "valueCodeableConcept": {
                    "coding": [
                        {
                            "code": "LA26801-3",
                            "display": "Simple Variant",
                            "system": "http://loinc.org"
                        }
                    ]
                }
            }
        },
        {
            "fullUrl": "urn:uuid:ed3cac89-9bc2-4fe2-bfd9-d85d8efe9683",
            "resource": {
                "resourceType": "Observation",
                "code": {
                    "coding": [
                        {
                            "code": "81252-9",
                            "display": "Discrete genetic variant",
                            "system": "http://loinc.org"
                        }
                    ]
                },
                "identifier": [
                    {
                        "assigner": {
                            "identifier": {
                                "system": "https://fhir.nhs.uk/Id/ods-organization-code",
                                "value": "699X0"
                            }
                        },
                        "system": "https://fhir.nwgenomics.nhs.uk/iGene/ReportIdentifier",
                        "type": {
                            "coding": [
                                {
                                    "code": "FILL",
                                    "system": "http://terminology.hl7.org/CodeSystem/v2-0203"
                                }
                            ]
                        },
                        "value": "Gen825750"
                    }
                ],
                "performer": [
                    {
                        "identifier": {
                            "system": "https://fhir.nhs.uk/Id/ods-organization-code",
                            "value": "699X0"
                        },
                        "type": "Organization"
                    }
                ],
                "status": "final",
                "subject": {
                    "identifier": {
                        "system": "https://fhir.nhs.uk/Id/nhs-number",
                        "type": {
                            "coding": [
                                {
                                    "code": "NH",
                                    "system": "http://terminology.hl7.org/CodeSystem/v2-0203"
                                }
                            ]
                        },
                        "value": "9737383206"
                    },
                    "reference": "urn:uuid:b71e1363-f128-4fd3-bcb7-c074d0d94c7f"
                },
                "valueCodeableConcept": {
                    "coding": [
                        {
                            "code": "89753",
                            "display": "NM_000249.3(MLH1):c.1489dupC (p.Arg497Profs)",
                            "system": "http://www.ncbi.nlm.nih.gov/clinvar"
                        }
                    ]
                }
            }
        },
        {
            "fullUrl": "urn:uuid:b584d1c6-81cc-49ca-88aa-28dacbd13820",
            "resource": {
                "resourceType": "Observation",
                "code": {
                    "coding": [
                        {
                            "code": "48018-6",
                            "display": "Gene studied",
                            "system": "http://loinc.org"
                        }
                    ]
                },
                "identifier": [
                    {
                        "assigner": {
                            "identifier": {
                                "system": "https://fhir.nhs.uk/Id/ods-organization-code",
                                "value": "699X0"
                            }
                        },
                        "system": "https://fhir.nwgenomics.nhs.uk/iGene/ReportIdentifier",
                        "type": {
                            "coding": [
                                {
                                    "code": "FILL",
                                    "system": "http://terminology.hl7.org/CodeSystem/v2-0203"
                                }
                            ]
                        },
                        "value": "Gen825750"
                    }
                ],
                "performer": [
                    {
                        "identifier": {
                            "system": "https://fhir.nhs.uk/Id/ods-organization-code",
                            "value": "699X0"
                        },
                        "type": "Organization"
                    }
                ],
                "status": "final",
                "subject": {
                    "identifier": {
                        "system": "https://fhir.nhs.uk/Id/nhs-number",
                        "type": {
                            "coding": [
                                {
                                    "code": "NH",
                                    "system": "http://terminology.hl7.org/CodeSystem/v2-0203"
                                }
                            ]
                        },
                        "value": "9737383206"
                    },
                    "reference": "urn:uuid:b71e1363-f128-4fd3-bcb7-c074d0d94c7f"
                },
                "valueCodeableConcept": {
                    "coding": [
                        {
                            "code": "89753",
                            "display": "MLH1",
                            "system": "http://www.genenames.org"
                        }
                    ]
                }
            }
        },
        {
            "fullUrl": "urn:uuid:8108c96a-4092-4910-bec4-9ed7b911f17e",
            "resource": {
                "resourceType": "Observation",
                "code": {
                    "coding": [
                        {
                            "code": "51958-7",
                            "display": "Transcript RefSeq ID",
                            "system": "http://loinc.org"
                        }
                    ]
                },
                "identifier": [
                    {
                        "assigner": {
                            "identifier": {
                                "system": "https://fhir.nhs.uk/Id/ods-organization-code",
                                "value": "699X0"
                            }
                        },
                        "system": "https://fhir.nwgenomics.nhs.uk/iGene/ReportIdentifier",
                        "type": {
                            "coding": [
                                {
                                    "code": "FILL",
                                    "system": "http://terminology.hl7.org/CodeSystem/v2-0203"
                                }
                            ]
                        },
                        "value": "Gen825750"
                    }
                ],
                "performer": [
                    {
                        "identifier": {
                            "system": "https://fhir.nhs.uk/Id/ods-organization-code",
                            "value": "699X0"
                        },
                        "type": "Organization"
                    }
                ],
                "status": "final",
                "subject": {
                    "identifier": {
                        "system": "https://fhir.nhs.uk/Id/nhs-number",
                        "type": {
                            "coding": [
                                {
                                    "code": "NH",
                                    "system": "http://terminology.hl7.org/CodeSystem/v2-0203"
                                }
                            ]
                        },
                        "value": "9737383206"
                    },
                    "reference": "urn:uuid:b71e1363-f128-4fd3-bcb7-c074d0d94c7f"
                },
                "valueCodeableConcept": {
                    "coding": [
                        {
                            "code": "NM_000249.3",
                            "display": "NM_000249.3",
                            "system": "http://www.ncbi.nlm.nih.gov/refseq"
                        }
                    ]
                }
            }
        },
        {
            "fullUrl": "urn:uuid:421b183e-55ad-42ee-873e-2f9d621586c7",
            "resource": {
                "resourceType": "Observation",
                "code": {
                    "coding": [
                        {
                            "code": "41103-3",
                            "display": "Transcript DNA Change(cHGVS)",
                            "system": "http://loinc.org"
                        }
                    ]
                },
                "identifier": [
                    {
                        "assigner": {
                            "identifier": {
                                "system": "https://fhir.nhs.uk/Id/ods-organization-code",
                                "value": "699X0"
                            }
                        },
                        "system": "https://fhir.nwgenomics.nhs.uk/iGene/ReportIdentifier",
                        "type": {
                            "coding": [
                                {
                                    "code": "FILL",
                                    "system": "http://terminology.hl7.org/CodeSystem/v2-0203"
                                }
                            ]
                        },
                        "value": "Gen825750"
                    }
                ],
                "performer": [
                    {
                        "identifier": {
                            "system": "https://fhir.nhs.uk/Id/ods-organization-code",
                            "value": "699X0"
                        },
                        "type": "Organization"
                    }
                ],
                "status": "final",
                "subject": {
                    "identifier": {
                        "system": "https://fhir.nhs.uk/Id/nhs-number",
                        "type": {
                            "coding": [
                                {
                                    "code": "NH",
                                    "system": "http://terminology.hl7.org/CodeSystem/v2-0203"
                                }
                            ]
                        },
                        "value": "9737383206"
                    },
                    "reference": "urn:uuid:b71e1363-f128-4fd3-bcb7-c074d0d94c7f"
                },
                "valueCodeableConcept": {
                    "coding": [
                        {
                            "code": "c.1489dupC",
                            "display": "c.1489dupC",
                            "system": "http://varnomen.hgvs.org"
                        }
                    ]
                }
            }
        },
        {
            "fullUrl": "urn:uuid:33321514-bb51-448d-be87-78e6650d7f71",
            "resource": {
                "resourceType": "Observation",
                "code": {
                    "coding": [
                        {
                            "code": "48005-3",
                            "display": "Amino acid change p.HGVS",
                            "system": "http://loinc.org"
                        }
                    ]
                },
                "identifier": [
                    {
                        "assigner": {
                            "identifier": {
                                "system": "https://fhir.nhs.uk/Id/ods-organization-code",
                                "value": "699X0"
                            }
                        },
                        "system": "https://fhir.nwgenomics.nhs.uk/iGene/ReportIdentifier",
                        "type": {
                            "coding": [
                                {
                                    "code": "FILL",
                                    "system": "http://terminology.hl7.org/CodeSystem/v2-0203"
                                }
                            ]
                        },
                        "value": "Gen825750"
                    }
                ],
                "performer": [
                    {
                        "identifier": {
                            "system": "https://fhir.nhs.uk/Id/ods-organization-code",
                            "value": "699X0"
                        },
                        "type": "Organization"
                    }
                ],
                "status": "final",
                "subject": {
                    "identifier": {
                        "system": "https://fhir.nhs.uk/Id/nhs-number",
                        "type": {
                            "coding": [
                                {
                                    "code": "NH",
                                    "system": "http://terminology.hl7.org/CodeSystem/v2-0203"
                                }
                            ]
                        },
                        "value": "9737383206"
                    },
                    "reference": "urn:uuid:b71e1363-f128-4fd3-bcb7-c074d0d94c7f"
                },
                "valueCodeableConcept": {
                    "coding": [
                        {
                            "code": "p.Arg497Profs",
                            "display": "p.Arg497Profs",
                            "system": "http://varnomen.hgvs.org"
                        }
                    ]
                }
            }
        },
        {
            "fullUrl": "urn:uuid:63930c9c-d10c-4ea8-8e2f-537972f45c48",
            "resource": {
                "resourceType": "Observation",
                "code": {
                    "coding": [
                        {
                            "code": "48019-4",
                            "display": "DNA change type",
                            "system": "http://loinc.org"
                        }
                    ]
                },
                "identifier": [
                    {
                        "assigner": {
                            "identifier": {
                                "system": "https://fhir.nhs.uk/Id/ods-organization-code",
                                "value": "699X0"
                            }
                        },
                        "system": "https://fhir.nwgenomics.nhs.uk/iGene/ReportIdentifier",
                        "type": {
                            "coding": [
                                {
                                    "code": "FILL",
                                    "system": "http://terminology.hl7.org/CodeSystem/v2-0203"
                                }
                            ]
                        },
                        "value": "Gen825750"
                    }
                ],
                "performer": [
                    {
                        "identifier": {
                            "system": "https://fhir.nhs.uk/Id/ods-organization-code",
                            "value": "699X0"
                        },
                        "type": "Organization"
                    }
                ],
                "status": "final",
                "subject": {
                    "identifier": {
                        "system": "https://fhir.nhs.uk/Id/nhs-number",
                        "type": {
                            "coding": [
                                {
                                    "code": "NH",
                                    "system": "http://terminology.hl7.org/CodeSystem/v2-0203"
                                }
                            ]
                        },
                        "value": "9737383206"
                    },
                    "reference": "urn:uuid:b71e1363-f128-4fd3-bcb7-c074d0d94c7f"
                },
                "valueCodeableConcept": {
                    "coding": [
                        {
                            "code": "LA6686-5",
                            "display": "Duplication",
                            "system": "http://loinc.org"
                        }
                    ]
                }
            }
        },
        {
            "fullUrl": "urn:uuid:ca6b340b-4e41-4027-a625-cb3a3aca86b8",
            "resource": {
                "resourceType": "Observation",
                "code": {
                    "coding": [
                        {
                            "code": "48006-1",
                            "display": "Amino acid change type",
                            "system": "http://loinc.org"
                        }
                    ]
                },
                "identifier": [
                    {
                        "assigner": {
                            "identifier": {
                                "system": "https://fhir.nhs.uk/Id/ods-organization-code",
                                "value": "699X0"
                            }
                        },
                        "system": "https://fhir.nwgenomics.nhs.uk/iGene/ReportIdentifier",
                        "type": {
                            "coding": [
                                {
                                    "code": "FILL",
                                    "system": "http://terminology.hl7.org/CodeSystem/v2-0203"
                                }
                            ]
                        },
                        "value": "Gen825750"
                    }
                ],
                "performer": [
                    {
                        "identifier": {
                            "system": "https://fhir.nhs.uk/Id/ods-organization-code",
                            "value": "699X0"
                        },
                        "type": "Organization"
                    }
                ],
                "status": "final",
                "subject": {
                    "identifier": {
                        "system": "https://fhir.nhs.uk/Id/nhs-number",
                        "type": {
                            "coding": [
                                {
                                    "code": "NH",
                                    "system": "http://terminology.hl7.org/CodeSystem/v2-0203"
                                }
                            ]
                        },
                        "value": "9737383206"
                    },
                    "reference": "urn:uuid:b71e1363-f128-4fd3-bcb7-c074d0d94c7f"
                },
                "valueCodeableConcept": {
                    "coding": [
                        {
                            "code": "LA6694-9",
                            "display": "Frameshift",
                            "system": "http://loinc.org"
                        }
                    ]
                }
            }
        },
        {
            "fullUrl": "urn:uuid:1cc6f82d-f645-4a3e-96d7-0524ab298aae",
            "resource": {
                "resourceType": "Observation",
                "code": {
                    "coding": [
                        {
                            "code": "48013-7",
                            "display": "Genomic reference sequence",
                            "system": "http://loinc.org"
                        }
                    ]
                },
                "identifier": [
                    {
                        "assigner": {
                            "identifier": {
                                "system": "https://fhir.nhs.uk/Id/ods-organization-code",
                                "value": "699X0"
                            }
                        },
                        "system": "https://fhir.nwgenomics.nhs.uk/iGene/ReportIdentifier",
                        "type": {
                            "coding": [
                                {
                                    "code": "FILL",
                                    "system": "http://terminology.hl7.org/CodeSystem/v2-0203"
                                }
                            ]
                        },
                        "value": "Gen825750"
                    }
                ],
                "performer": [
                    {
                        "identifier": {
                            "system": "https://fhir.nhs.uk/Id/ods-organization-code",
                            "value": "699X0"
                        },
                        "type": "Organization"
                    }
                ],
                "status": "final",
                "subject": {
                    "identifier": {
                        "system": "https://fhir.nhs.uk/Id/nhs-number",
                        "type": {
                            "coding": [
                                {
                                    "code": "NH",
                                    "system": "http://terminology.hl7.org/CodeSystem/v2-0203"
                                }
                            ]
                        },
                        "value": "9737383206"
                    },
                    "reference": "urn:uuid:b71e1363-f128-4fd3-bcb7-c074d0d94c7f"
                },
                "valueCodeableConcept": {
                    "coding": [
                        {
                            "code": "NG_007109.2:g.40514dupC",
                            "display": "NG_007109.2:g.40514dupC",
                            "system": "http://www.ncbi.nlm.nih.gov/refseq"
                        }
                    ]
                }
            }
        },
        {
            "fullUrl": "urn:uuid:33fe5868-19aa-4cda-b31d-d4c5797c1ccc",
            "resource": {
                "resourceType": "Observation",
                "code": {
                    "coding": [
                        {
                            "code": "81290-9",
                            "display": "Genomic DNA change (gHGVS)",
                            "system": "http://loinc.org"
                        }
                    ]
                },
                "identifier": [
                    {
                        "assigner": {
                            "identifier": {
                                "system": "https://fhir.nhs.uk/Id/ods-organization-code",
                                "value": "699X0"
                            }
                        },
                        "system": "https://fhir.nwgenomics.nhs.uk/iGene/ReportIdentifier",
                        "type": {
                            "coding": [
                                {
                                    "code": "FILL",
                                    "system": "http://terminology.hl7.org/CodeSystem/v2-0203"
                                }
                            ]
                        },
                        "value": "Gen825750"
                    }
                ],
                "performer": [
                    {
                        "identifier": {
                            "system": "https://fhir.nhs.uk/Id/ods-organization-code",
                            "value": "699X0"
                        },
                        "type": "Organization"
                    }
                ],
                "status": "final",
                "subject": {
                    "identifier": {
                        "system": "https://fhir.nhs.uk/Id/nhs-number",
                        "type": {
                            "coding": [
                                {
                                    "code": "NH",
                                    "system": "http://terminology.hl7.org/CodeSystem/v2-0203"
                                }
                            ]
                        },
                        "value": "9737383206"
                    },
                    "reference": "urn:uuid:b71e1363-f128-4fd3-bcb7-c074d0d94c7f"
                },
                "valueCodeableConcept": {
                    "coding": [
                        {
                            "code": "NC_000003.11",
                            "display": "NC_000003.11",
                            "system": "http://varnomen.hgvs.org"
                        }
                    ]
                }
            }
        },
        {
            "fullUrl": "urn:uuid:c15ae115-4e92-4d6e-817f-5d3f9b2ecd41",
            "resource": {
                "resourceType": "Observation",
                "code": {
                    "coding": [
                        {
                            "code": "69547-8",
                            "display": "Genomic ref allele",
                            "system": "http://loinc.org"
                        }
                    ]
                },
                "identifier": [
                    {
                        "assigner": {
                            "identifier": {
                                "system": "https://fhir.nhs.uk/Id/ods-organization-code",
                                "value": "699X0"
                            }
                        },
                        "system": "https://fhir.nwgenomics.nhs.uk/iGene/ReportIdentifier",
                        "type": {
                            "coding": [
                                {
                                    "code": "FILL",
                                    "system": "http://terminology.hl7.org/CodeSystem/v2-0203"
                                }
                            ]
                        },
                        "value": "Gen825750"
                    }
                ],
                "performer": [
                    {
                        "identifier": {
                            "system": "https://fhir.nhs.uk/Id/ods-organization-code",
                            "value": "699X0"
                        },
                        "type": "Organization"
                    }
                ],
                "status": "final",
                "subject": {
                    "identifier": {
                        "system": "https://fhir.nhs.uk/Id/nhs-number",
                        "type": {
                            "coding": [
                                {
                                    "code": "NH",
                                    "system": "http://terminology.hl7.org/CodeSystem/v2-0203"
                                }
                            ]
                        },
                        "value": "9737383206"
                    },
                    "reference": "urn:uuid:b71e1363-f128-4fd3-bcb7-c074d0d94c7f"
                },
                "valueString": "C"
            }
        },
        {
            "fullUrl": "urn:uuid:5f1dae1c-68c0-488d-a13f-68ed2797fcd1",
            "resource": {
                "resourceType": "Observation",
                "code": {
                    "coding": [
                        {
                            "code": "81254-5",
                            "display": "Genomic allele start-end",
                            "system": "http://loinc.org"
                        }
                    ]
                },
                "identifier": [
                    {
                        "assigner": {
                            "identifier": {
                                "system": "https://fhir.nhs.uk/Id/ods-organization-code",
                                "value": "699X0"
                            }
                        },
                        "system": "https://fhir.nwgenomics.nhs.uk/iGene/ReportIdentifier",
                        "type": {
                            "coding": [
                                {
                                    "code": "FILL",
                                    "system": "http://terminology.hl7.org/CodeSystem/v2-0203"
                                }
                            ]
                        },
                        "value": "Gen825750"
                    }
                ],
                "performer": [
                    {
                        "identifier": {
                            "system": "https://fhir.nhs.uk/Id/ods-organization-code",
                            "value": "699X0"
                        },
                        "type": "Organization"
                    }
                ],
                "status": "final",
                "subject": {
                    "identifier": {
                        "system": "https://fhir.nhs.uk/Id/nhs-number",
                        "type": {
                            "coding": [
                                {
                                    "code": "NH",
                                    "system": "http://terminology.hl7.org/CodeSystem/v2-0203"
                                }
                            ]
                        },
                        "value": "9737383206"
                    },
                    "reference": "urn:uuid:b71e1363-f128-4fd3-bcb7-c074d0d94c7f"
                }
            }
        },
        {
            "fullUrl": "urn:uuid:159ba57b-3c73-4c51-9e29-69ba538e357d",
            "resource": {
                "resourceType": "Observation",
                "code": {
                    "coding": [
                        {
                            "code": "69551-0",
                            "display": "Genomic alt allele",
                            "system": "http://loinc.org"
                        }
                    ]
                },
                "identifier": [
                    {
                        "assigner": {
                            "identifier": {
                                "system": "https://fhir.nhs.uk/Id/ods-organization-code",
                                "value": "699X0"
                            }
                        },
                        "system": "https://fhir.nwgenomics.nhs.uk/iGene/ReportIdentifier",
                        "type": {
                            "coding": [
                                {
                                    "code": "FILL",
                                    "system": "http://terminology.hl7.org/CodeSystem/v2-0203"
                                }
                            ]
                        },
                        "value": "Gen825750"
                    }
                ],
                "performer": [
                    {
                        "identifier": {
                            "system": "https://fhir.nhs.uk/Id/ods-organization-code",
                            "value": "699X0"
                        },
                        "type": "Organization"
                    }
                ],
                "status": "final",
                "subject": {
                    "identifier": {
                        "system": "https://fhir.nhs.uk/Id/nhs-number",
                        "type": {
                            "coding": [
                                {
                                    "code": "NH",
                                    "system": "http://terminology.hl7.org/CodeSystem/v2-0203"
                                }
                            ]
                        },
                        "value": "9737383206"
                    },
                    "reference": "urn:uuid:b71e1363-f128-4fd3-bcb7-c074d0d94c7f"
                },
                "valueString": "CC"
            }
        },
        {
            "fullUrl": "urn:uuid:cd7d5173-82f5-4793-ada1-56cdcfaf6fb4",
            "resource": {
                "resourceType": "Observation",
                "code": {
                    "coding": [
                        {
                            "code": "81255-2",
                            "display": "dbSNP ID",
                            "system": "http://loinc.org"
                        }
                    ]
                },
                "identifier": [
                    {
                        "assigner": {
                            "identifier": {
                                "system": "https://fhir.nhs.uk/Id/ods-organization-code",
                                "value": "699X0"
                            }
                        },
                        "system": "https://fhir.nwgenomics.nhs.uk/iGene/ReportIdentifier",
                        "type": {
                            "coding": [
                                {
                                    "code": "FILL",
                                    "system": "http://terminology.hl7.org/CodeSystem/v2-0203"
                                }
                            ]
                        },
                        "value": "Gen825750"
                    }
                ],
                "performer": [
                    {
                        "identifier": {
                            "system": "https://fhir.nhs.uk/Id/ods-organization-code",
                            "value": "699X0"
                        },
                        "type": "Organization"
                    }
                ],
                "status": "final",
                "subject": {
                    "identifier": {
                        "system": "https://fhir.nhs.uk/Id/nhs-number",
                        "type": {
                            "coding": [
                                {
                                    "code": "NH",
                                    "system": "http://terminology.hl7.org/CodeSystem/v2-0203"
                                }
                            ]
                        },
                        "value": "9737383206"
                    },
                    "reference": "urn:uuid:b71e1363-f128-4fd3-bcb7-c074d0d94c7f"
                },
                "valueCodeableConcept": {
                    "coding": [
                        {
                            "code": "rs63751031",
                            "display": "rs63751031",
                            "system": "http://www.ncbi.nlm.nih.gov/projects/SNP"
                        }
                    ]
                }
            }
        },
        {
            "fullUrl": "urn:uuid:44b38bf1-5a04-466f-bb3b-c372654fb46c",
            "resource": {
                "resourceType": "Observation",
                "code": {
                    "coding": [
                        {
                            "code": "48001-2",
                            "display": "Cytogenetic (chromosome) location",
                            "system": "http://loinc.org"
                        }
                    ]
                },
                "identifier": [
                    {
                        "assigner": {
                            "identifier": {
                                "system": "https://fhir.nhs.uk/Id/ods-organization-code",
                                "value": "699X0"
                            }
                        },
                        "system": "https://fhir.nwgenomics.nhs.uk/iGene/ReportIdentifier",
                        "type": {
                            "coding": [
                                {
                                    "code": "FILL",
                                    "system": "http://terminology.hl7.org/CodeSystem/v2-0203"
                                }
                            ]
                        },
                        "value": "Gen825750"
                    }
                ],
                "performer": [
                    {
                        "identifier": {
                            "system": "https://fhir.nhs.uk/Id/ods-organization-code",
                            "value": "699X0"
                        },
                        "type": "Organization"
                    }
                ],
                "status": "final",
                "subject": {
                    "identifier": {
                        "system": "https://fhir.nhs.uk/Id/nhs-number",
                        "type": {
                            "coding": [
                                {
                                    "code": "NH",
                                    "system": "http://terminology.hl7.org/CodeSystem/v2-0203"
                                }
                            ]
                        },
                        "value": "9737383206"
                    },
                    "reference": "urn:uuid:b71e1363-f128-4fd3-bcb7-c074d0d94c7f"
                },
                "valueCodeableConcept": {
                    "coding": [
                        {
                            "code": "3p22.2",
                            "display": "3p22.2",
                            "system": "Chrom-Loc"
                        }
                    ]
                }
            }
        },
        {
            "fullUrl": "urn:uuid:f82f762d-5056-40a8-b8cb-ec70b0ce0771",
            "resource": {
                "resourceType": "Observation",
                "code": {
                    "coding": [
                        {
                            "code": "48002-0",
                            "display": "Genomic source class",
                            "system": "http://loinc.org"
                        }
                    ]
                },
                "identifier": [
                    {
                        "assigner": {
                            "identifier": {
                                "system": "https://fhir.nhs.uk/Id/ods-organization-code",
                                "value": "699X0"
                            }
                        },
                        "system": "https://fhir.nwgenomics.nhs.uk/iGene/ReportIdentifier",
                        "type": {
                            "coding": [
                                {
                                    "code": "FILL",
                                    "system": "http://terminology.hl7.org/CodeSystem/v2-0203"
                                }
                            ]
                        },
                        "value": "Gen825750"
                    }
                ],
                "performer": [
                    {
                        "identifier": {
                            "system": "https://fhir.nhs.uk/Id/ods-organization-code",
                            "value": "699X0"
                        },
                        "type": "Organization"
                    }
                ],
                "status": "final",
                "subject": {
                    "identifier": {
                        "system": "https://fhir.nhs.uk/Id/nhs-number",
                        "type": {
                            "coding": [
                                {
                                    "code": "NH",
                                    "system": "http://terminology.hl7.org/CodeSystem/v2-0203"
                                }
                            ]
                        },
                        "value": "9737383206"
                    },
                    "reference": "urn:uuid:b71e1363-f128-4fd3-bcb7-c074d0d94c7f"
                },
                "valueCodeableConcept": {
                    "coding": [
                        {
                            "code": "LA6683-2",
                            "display": "Germline",
                            "system": "http://loinc.org"
                        }
                    ]
                }
            }
        },
        {
            "fullUrl": "urn:uuid:e3a1eb33-50a6-4e15-b6c4-e7a28f70a8ac",
            "resource": {
                "resourceType": "Observation",
                "code": {
                    "coding": [
                        {
                            "code": "53037-8",
                            "display": "Variant analysis method",
                            "system": "http://loinc.org"
                        }
                    ]
                },
                "identifier": [
                    {
                        "assigner": {
                            "identifier": {
                                "system": "https://fhir.nhs.uk/Id/ods-organization-code",
                                "value": "699X0"
                            }
                        },
                        "system": "https://fhir.nwgenomics.nhs.uk/iGene/ReportIdentifier",
                        "type": {
                            "coding": [
                                {
                                    "code": "FILL",
                                    "system": "http://terminology.hl7.org/CodeSystem/v2-0203"
                                }
                            ]
                        },
                        "value": "Gen825750"
                    }
                ],
                "performer": [
                    {
                        "identifier": {
                            "system": "https://fhir.nhs.uk/Id/ods-organization-code",
                            "value": "699X0"
                        },
                        "type": "Organization"
                    }
                ],
                "status": "final",
                "subject": {
                    "identifier": {
                        "system": "https://fhir.nhs.uk/Id/nhs-number",
                        "type": {
                            "coding": [
                                {
                                    "code": "NH",
                                    "system": "http://terminology.hl7.org/CodeSystem/v2-0203"
                                }
                            ]
                        },
                        "value": "9737383206"
                    },
                    "reference": "urn:uuid:b71e1363-f128-4fd3-bcb7-c074d0d94c7f"
                },
                "valueCodeableConcept": {
                    "coding": [
                        {
                            "code": "LA26398-0",
                            "display": "Sequencing",
                            "system": "http://loinc.org"
                        }
                    ]
                }
            }
        },
        {
            "fullUrl": "urn:uuid:a0c22f61-913b-412d-9829-8d79a57eb12c",
            "resource": {
                "resourceType": "Observation",
                "code": {
                    "coding": [
                        {
                            "code": "53037-8",
                            "display": "Genetic variation clinical significance",
                            "system": "http://loinc.org"
                        }
                    ]
                },
                "identifier": [
                    {
                        "assigner": {
                            "identifier": {
                                "system": "https://fhir.nhs.uk/Id/ods-organization-code",
                                "value": "699X0"
                            }
                        },
                        "system": "https://fhir.nwgenomics.nhs.uk/iGene/ReportIdentifier",
                        "type": {
                            "coding": [
                                {
                                    "code": "FILL",
                                    "system": "http://terminology.hl7.org/CodeSystem/v2-0203"
                                }
                            ]
                        },
                        "value": "Gen825750"
                    }
                ],
                "performer": [
                    {
                        "identifier": {
                            "system": "https://fhir.nhs.uk/Id/ods-organization-code",
                            "value": "699X0"
                        },
                        "type": "Organization"
                    }
                ],
                "status": "final",
                "subject": {
                    "identifier": {
                        "system": "https://fhir.nhs.uk/Id/nhs-number",
                        "type": {
                            "coding": [
                                {
                                    "code": "NH",
                                    "system": "http://terminology.hl7.org/CodeSystem/v2-0203"
                                }
                            ]
                        },
                        "value": "9737383206"
                    },
                    "reference": "urn:uuid:b71e1363-f128-4fd3-bcb7-c074d0d94c7f"
                }
            }
        },
        {
            "fullUrl": "urn:uuid:0398cbd9-ba8c-4de1-9ad9-70c898d94171",
            "resource": {
                "resourceType": "ServiceRequest",
                "authoredOn": "2016-08-03",
                "category": [
                    {
                        "coding": [
                            {
                                "code": "116148004",
                                "system": "http://snomed.info/sct"
                            }
                        ]
                    }
                ],
                "code": {
                    "coding": [
                        {
                            "code": "R210.2",
                            "display": "Inherited MMR deficiency (Lynch syndrome)",
                            "system": "https://fhir.nhs.uk/CodeSystem/England-GenomicTestDirectory"
                        }
                    ]
                },
                "identifier": [
                    {
                        "assigner": {
                            "identifier": {
                                "system": "https://fhir.nhs.uk/Id/ods-organization-code",
                                "value": "REP"
                            }
                        },
                        "type": {
                            "coding": [
                                {
                                    "code": "PLAC",
                                    "system": "http://terminology.hl7.org/CodeSystem/v2-0203"
                                }
                            ]
                        },
                        "value": "LRI-5286710001"
                    }
                ],
                "intent": "order",
                "requester": {
                    "display": "Liverpool Womens",
                    "identifier": {
                        "system": "https://fhir.nhs.uk/Id/ods-organization-code",
                        "value": "REP"
                    },
                    "type": "Organization"
                },
                "status": "active",
                "subject": {
                    "identifier": {
                        "system": "https://fhir.nhs.uk/Id/nhs-number",
                        "type": {
                            "coding": [
                                {
                                    "code": "NH",
                                    "system": "http://terminology.hl7.org/CodeSystem/v2-0203"
                                }
                            ]
                        },
                        "value": "9737383206"
                    },
                    "reference": "urn:uuid:b71e1363-f128-4fd3-bcb7-c074d0d94c7f"
                }
            }
        },
        {
            "fullUrl": "urn:uuid:c9266274-3862-409b-88fb-635080f6851a",
            "resource": {
                "resourceType": "DiagnosticReport",
                "basedOn": [
                    {
                        "identifier": {
                            "assigner": {
                                "identifier": {
                                    "system": "https://fhir.nhs.uk/Id/ods-organization-code",
                                    "value": "REP"
                                }
                            },
                            "type": {
                                "coding": [
                                    {
                                        "code": "PLAC",
                                        "system": "http://terminology.hl7.org/CodeSystem/v2-0203"
                                    }
                                ]
                            },
                            "value": "LRI-5286710001"
                        },
                        "reference": "urn:uuid:0398cbd9-ba8c-4de1-9ad9-70c898d94171",
                        "type": "ServiceRequest"
                    }
                ],
                "category": [
                    {
                        "coding": [
                            {
                                "code": "GE",
                                "system": "http://terminology.hl7.org/CodeSystem/v2-0074"
                            }
                        ]
                    }
                ],
                "code": {
                    "coding": [
                        {
                            "code": "R210.2",
                            "display": "Inherited MMR deficiency (Lynch syndrome)",
                            "system": "https://fhir.nhs.uk/CodeSystem/England-GenomicTestDirectory"
                        }
                    ]
                },
                "effectiveDateTime": "2016-08-09T16:50:00+00:00",
                "extension": [
                    {
                        "extension": [
                            {
                                "url": "reference",
                                "valueReference": {
                                    "display": "Genetic report",
                                    "reference": "urn:uuid:0d83d848-d834-499a-9fbb-d32971d1490c",
                                    "type": "DocumentReference"
                                }
                            },
                            {
                                "url": "type",
                                "valueCodeableConcept": {
                                    "coding": [
                                        {
                                            "code": "SCI",
                                            "system": "http://hl7.org/fhir/diagnosticreport-relevant-information-types"
                                        }
                                    ]
                                }
                            }
                        ],
                        "url": "http://hl7.org/fhir/5.0/StructureDefinition/extension-DiagnosticReport.supportingInfo"
                    }
                ],
                "identifier": [
                    {
                        "assigner": {
                            "identifier": {
                                "system": "https://fhir.nhs.uk/Id/ods-organization-code",
                                "value": "699X0"
                            }
                        },
                        "system": "https://fhir.nwgenomics.nhs.uk/iGene/ReportIdentifier",
                        "type": {
                            "coding": [
                                {
                                    "code": "FILL",
                                    "system": "http://terminology.hl7.org/CodeSystem/v2-0203"
                                }
                            ]
                        },
                        "value": "Gen825750"
                    }
                ],
                "performer": [
                    {
                        "display": "NHS North West Genomics",
                        "identifier": {
                            "system": "https://fhir.nhs.uk/Id/ods-organization-code",
                            "value": "699X0"
                        },
                        "type": "Organization"
                    }
                ],
                "presentedForm": [
                    {
                        "contentType": "application/pdf",
                        "url": "urn:uuid:e01a5b47-34be-4667-801c-6a4474e1559a"
                    }
                ],
                "result": [
                    {
                        "display": "Reason for study",
                        "reference": "urn:uuid:8cc668fc-9da5-4ccc-913b-0f3f40f87a17",
                        "type": "Observation"
                    },
                    {
                        "display": "Genetic disease(s) assessed",
                        "reference": "urn:uuid:95d3745b-ad04-4b29-a132-da974af22770",
                        "type": "Observation"
                    },
                    {
                        "display": "Transcript reference sequence [Identifier]",
                        "reference": "urn:uuid:ab823c43-f382-4762-a843-ea11d7c81b08",
                        "type": "Observation"
                    },
                    {
                        "display": "Gene studied",
                        "reference": "urn:uuid:5c56e9f6-a012-44cd-b3be-1b5dc252e6e5",
                        "type": "Observation"
                    },
                    {
                        "display": "Description of ranges of DNA sequences examined",
                        "reference": "urn:uuid:2a9bd478-cd7e-40af-a1d7-7406ef2d9cd4",
                        "type": "Observation"
                    },
                    {
                        "display": "Discrete variation analysis overall interpretation",
                        "reference": "urn:uuid:b1327305-3060-49a2-b2ee-698662b97fcd",
                        "type": "Observation"
                    },
                    {
                        "display": "Deletion-duplication overall interpretation",
                        "reference": "urn:uuid:833998f3-6461-40d7-97d6-0d78511de23b",
                        "type": "Observation"
                    },
                    {
                        "display": "Human reference sequence assembly",
                        "reference": "urn:uuid:58fa96cc-0418-42a8-930c-4c8094b8d4c8",
                        "type": "Observation"
                    },
                    {
                        "display": "dbSNP version",
                        "reference": "urn:uuid:0d66b052-5943-4443-8142-f2f6b5ef497f",
                        "type": "Observation"
                    },
                    {
                        "display": "Variant Category",
                        "reference": "urn:uuid:fbbaab4b-ad99-4633-a351-23b1497d33ed",
                        "type": "Observation"
                    },
                    {
                        "display": "Discrete genetic variant",
                        "reference": "urn:uuid:ed3cac89-9bc2-4fe2-bfd9-d85d8efe9683",
                        "type": "Observation"
                    },
                    {
                        "display": "Gene studied",
                        "reference": "urn:uuid:b584d1c6-81cc-49ca-88aa-28dacbd13820",
                        "type": "Observation"
                    },
                    {
                        "display": "Transcript RefSeq ID",
                        "reference": "urn:uuid:8108c96a-4092-4910-bec4-9ed7b911f17e",
                        "type": "Observation"
                    },
                    {
                        "display": "Transcript DNA Change(cHGVS)",
                        "reference": "urn:uuid:421b183e-55ad-42ee-873e-2f9d621586c7",
                        "type": "Observation"
                    },
                    {
                        "display": "Amino acid change p.HGVS",
                        "reference": "urn:uuid:33321514-bb51-448d-be87-78e6650d7f71",
                        "type": "Observation"
                    },
                    {
                        "display": "DNA change type",
                        "reference": "urn:uuid:63930c9c-d10c-4ea8-8e2f-537972f45c48",
                        "type": "Observation"
                    },
                    {
                        "display": "Amino acid change type",
                        "reference": "urn:uuid:ca6b340b-4e41-4027-a625-cb3a3aca86b8",
                        "type": "Observation"
                    },
                    {
                        "display": "Genomic reference sequence",
                        "reference": "urn:uuid:1cc6f82d-f645-4a3e-96d7-0524ab298aae",
                        "type": "Observation"
                    },
                    {
                        "display": "Genomic DNA change (gHGVS)",
                        "reference": "urn:uuid:33fe5868-19aa-4cda-b31d-d4c5797c1ccc",
                        "type": "Observation"
                    },
                    {
                        "display": "Genomic ref allele",
                        "reference": "urn:uuid:c15ae115-4e92-4d6e-817f-5d3f9b2ecd41",
                        "type": "Observation"
                    },
                    {
                        "display": "Genomic allele start-end",
                        "reference": "urn:uuid:5f1dae1c-68c0-488d-a13f-68ed2797fcd1",
                        "type": "Observation"
                    },
                    {
                        "display": "Genomic alt allele",
                        "reference": "urn:uuid:159ba57b-3c73-4c51-9e29-69ba538e357d",
                        "type": "Observation"
                    },
                    {
                        "display": "dbSNP ID",
                        "reference": "urn:uuid:cd7d5173-82f5-4793-ada1-56cdcfaf6fb4",
                        "type": "Observation"
                    },
                    {
                        "display": "Cytogenetic (chromosome) location",
                        "reference": "urn:uuid:44b38bf1-5a04-466f-bb3b-c372654fb46c",
                        "type": "Observation"
                    },
                    {
                        "display": "Genomic source class",
                        "reference": "urn:uuid:f82f762d-5056-40a8-b8cb-ec70b0ce0771",
                        "type": "Observation"
                    },
                    {
                        "display": "Variant analysis method",
                        "reference": "urn:uuid:e3a1eb33-50a6-4e15-b6c4-e7a28f70a8ac",
                        "type": "Observation"
                    },
                    {
                        "display": "Genetic variation clinical significance",
                        "reference": "urn:uuid:a0c22f61-913b-412d-9829-8d79a57eb12c",
                        "type": "Observation"
                    }
                ],
                "status": "unknown",
                "subject": {
                    "identifier": {
                        "system": "https://fhir.nhs.uk/Id/nhs-number",
                        "type": {
                            "coding": [
                                {
                                    "code": "NH",
                                    "system": "http://terminology.hl7.org/CodeSystem/v2-0203"
                                }
                            ]
                        },
                        "value": "9737383206"
                    },
                    "reference": "urn:uuid:b71e1363-f128-4fd3-bcb7-c074d0d94c7f"
                }
            }
        }
    ],
    "identifier": {
        "value": "ORIE-251014-9"
    },
    "timestamp": "2025-10-14T15:59:42+00:00",
    "type": "message"
}