{
    "resourceType": "Bundle",
    "entry": [
        {
            "fullUrl": "urn:uuid:b0c85647-cc72-4fbe-a4f3-afbe6e5c2786",
            "resource": {
                "resourceType": "MessageHeader",
                "destination": [
                    {
                        "endpoint": "https//fhir.mft.nhs.uk/Endpoint/cymru.nhs.uk",
                        "receiver": {
                            "identifier": {
                                "system": "https://fhir.nhs.uk/Id/ods-organization-code",
                                "value": "NHSWales"
                            }
                        }
                    }
                ],
                "eventCoding": {
                    "code": "T02",
                    "system": "http://terminology.hl7.org/CodeSystem/v2-0003"
                },
                "focus": [
                    {
                        "reference": "urn:uuid:c5e9c262-9ced-40af-ad6d-f988194b611e"
                    },
                    {
                        "reference": "urn:uuid:e6e92a1e-0ea2-40a7-aac0-20d88ed05c36"
                    },
                    {
                        "reference": "urn:uuid:1fc5abb4-f9e4-434f-8f0a-39cce5bb5263"
                    },
                    {
                        "reference": "urn:uuid:05fb9804-31a5-433a-b76e-f8002a902954"
                    },
                    {
                        "reference": "urn:uuid:bc1acbb8-157b-4a72-84d7-8d1802374e50"
                    }
                ],
                "sender": {
                    "identifier": {
                        "system": "https://fhir.nhs.uk/Id/ods-organization-code",
                        "value": "CAV"
                    }
                },
                "source": {
                    "endpoint": "https://fhir.nwgenomics.nhs.uk/Endpoint/ACMELab",
                    "software": "NW GLH"
                }
            }
        },
        {
            "fullUrl": "urn:uuid:1a9d2eda-8aa0-4ca1-bc15-385b1d8ed0dd",
            "resource": {
                "resourceType": "Patient",
                "address": [
                    {
                        "city": "Baglan",
                        "district": "Neath port talbot",
                        "line": [
                            "A B M U Health Board",
                            "One Talbot Gateway"
                        ],
                        "postalCode": "SA12 7BR"
                    }
                ],
                "birthDate": "1999-10-13",
                "gender": "male",
                "identifier": [
                    {
                        "assigner": {
                            "identifier": {
                                "system": "https://fhir.nhs.uk/Id/ods-organization-code",
                                "value": "7A4"
                            }
                        },
                        "type": {
                            "coding": [
                                {
                                    "code": "PI",
                                    "system": "http://terminology.hl7.org/CodeSystem/v2-0203"
                                }
                            ]
                        },
                        "value": "403281375"
                    },
                    {
                        "assigner": {
                            "identifier": {
                                "system": "https://fhir.nhs.uk/Id/ods-organization-code",
                                "value": "X24"
                            }
                        },
                        "system": "https://fhir.nhs.uk/Id/nhs-number",
                        "type": {
                            "coding": [
                                {
                                    "code": "NH",
                                    "system": "http://terminology.hl7.org/CodeSystem/v2-0203"
                                }
                            ]
                        },
                        "value": "9737383257"
                    }
                ],
                "name": [
                    {
                        "family": "WREXHAM",
                        "given": [
                            "Myrcella"
                        ],
                        "prefix": [
                            "Mr"
                        ]
                    }
                ]
            }
        },
        {
            "fullUrl": "urn:uuid:10d9a7c7-2d0a-482d-bb93-1ddbf6ddd533",
            "resource": {
                "resourceType": "Observation",
                "code": {
                    "coding": [
                        {
                            "code": "B3553",
                            "display": "HbA1c (IFCC traceable)"
                        }
                    ]
                },
                "effectiveDateTime": "2018-03-09T15:00:00+00:00",
                "identifier": [
                    {
                        "type": {
                            "coding": [
                                {
                                    "code": "FILL",
                                    "system": "http://terminology.hl7.org/CodeSystem/v2-0203"
                                }
                            ]
                        },
                        "value": "914694928301"
                    }
                ],
                "performer": [
                    {
                        "identifier": {
                            "system": "https://fhir.nhs.uk/Id/ods-organization-code",
                            "value": "699X0"
                        },
                        "type": "Organization"
                    }
                ],
                "referenceRange": [
                    {
                        "text": "<48"
                    }
                ],
                "status": "final",
                "subject": {
                    "identifier": {
                        "assigner": {
                            "identifier": {
                                "system": "https://fhir.nhs.uk/Id/ods-organization-code",
                                "value": "X24"
                            }
                        },
                        "system": "https://fhir.nhs.uk/Id/nhs-number",
                        "type": {
                            "coding": [
                                {
                                    "code": "NH",
                                    "system": "http://terminology.hl7.org/CodeSystem/v2-0203"
                                }
                            ]
                        },
                        "value": "9737383257"
                    },
                    "reference": "urn:uuid:1a9d2eda-8aa0-4ca1-bc15-385b1d8ed0dd"
                },
                "valueQuantity": {
                    "system": "http://unitsofmeasure.org",
                    "unit": "mmol/mol",
                    "value": 49
                }
            }
        },
        {
            "fullUrl": "urn:uuid:38940a39-85d0-46fe-a026-bc998f7de51c",
            "resource": {
                "resourceType": "Specimen",
                "identifier": [
                    {
                        "type": {
                            "coding": [
                                {
                                    "code": "PLAC",
                                    "system": "http://terminology.hl7.org/CodeSystem/v2-0203"
                                }
                            ]
                        },
                        "value": "914694928301"
                    }
                ],
                "receivedTime": "2018-03-09T15:00:00+00:00",
                "status": "unavailable",
                "subject": {
                    "identifier": {
                        "assigner": {
                            "identifier": {
                                "system": "https://fhir.nhs.uk/Id/ods-organization-code",
                                "value": "X24"
                            }
                        },
                        "system": "https://fhir.nhs.uk/Id/nhs-number",
                        "type": {
                            "coding": [
                                {
                                    "code": "NH",
                                    "system": "http://terminology.hl7.org/CodeSystem/v2-0203"
                                }
                            ]
                        },
                        "value": "9737383257"
                    },
                    "reference": "urn:uuid:1a9d2eda-8aa0-4ca1-bc15-385b1d8ed0dd"
                }
            }
        },
        {
            "fullUrl": "urn:uuid:555b9c72-bc96-47c9-9344-0fdd591dec6b",
            "resource": {
                "resourceType": "ServiceRequest",
                "category": [
                    {
                        "coding": [
                            {
                                "code": "116148004",
                                "system": "http://snomed.info/sct"
                            }
                        ]
                    }
                ],
                "code": {
                    "coding": [
                        {
                            "code": "B3051",
                            "display": "HbA1c (IFCC traceable)"
                        }
                    ]
                },
                "identifier": [
                    {
                        "type": {
                            "coding": [
                                {
                                    "code": "FILL",
                                    "system": "http://terminology.hl7.org/CodeSystem/v2-0203"
                                }
                            ]
                        },
                        "value": "914694928301"
                    }
                ],
                "intent": "order",
                "specimen": [
                    {
                        "reference": "urn:uuid:38940a39-85d0-46fe-a026-bc998f7de51c",
                        "type": "Specimen"
                    }
                ],
                "status": "completed",
                "subject": {
                    "identifier": {
                        "assigner": {
                            "identifier": {
                                "system": "https://fhir.nhs.uk/Id/ods-organization-code",
                                "value": "X24"
                            }
                        },
                        "system": "https://fhir.nhs.uk/Id/nhs-number",
                        "type": {
                            "coding": [
                                {
                                    "code": "NH",
                                    "system": "http://terminology.hl7.org/CodeSystem/v2-0203"
                                }
                            ]
                        },
                        "value": "9737383257"
                    },
                    "reference": "urn:uuid:1a9d2eda-8aa0-4ca1-bc15-385b1d8ed0dd"
                }
            }
        },
        {
            "fullUrl": "urn:uuid:c5e9c262-9ced-40af-ad6d-f988194b611e",
            "resource": {
                "resourceType": "DiagnosticReport",
                "basedOn": [
                    {
                        "identifier": {
                            "type": {
                                "coding": [
                                    {
                                        "code": "FILL",
                                        "system": "http://terminology.hl7.org/CodeSystem/v2-0203"
                                    }
                                ]
                            },
                            "value": "914694928301"
                        },
                        "reference": "urn:uuid:555b9c72-bc96-47c9-9344-0fdd591dec6b",
                        "type": "ServiceRequest"
                    }
                ],
                "category": [
                    {
                        "coding": [
                            {
                                "code": "GE",
                                "system": "http://terminology.hl7.org/CodeSystem/v2-0074"
                            }
                        ]
                    }
                ],
                "code": {
                    "coding": [
                        {
                            "code": "B3051",
                            "display": "HbA1c (IFCC traceable)"
                        }
                    ]
                },
                "effectiveDateTime": "2018-03-09T15:00:00+00:00",
                "identifier": [
                    {
                        "type": {
                            "coding": [
                                {
                                    "code": "FILL",
                                    "system": "http://terminology.hl7.org/CodeSystem/v2-0203"
                                }
                            ]
                        },
                        "value": "914694928301"
                    }
                ],
                "issued": "2018-03-09T15:00:00+00:00",
                "performer": [
                    {
                        "display": "NHS North West Genomics",
                        "identifier": {
                            "system": "https://fhir.nhs.uk/Id/ods-organization-code",
                            "value": "699X0"
                        },
                        "type": "Organization"
                    }
                ],
                "result": [
                    {
                        "display": "HbA1c (IFCC traceable)",
                        "reference": "urn:uuid:10d9a7c7-2d0a-482d-bb93-1ddbf6ddd533",
                        "type": "Observation"
                    }
                ],
                "specimen": [
                    {
                        "reference": "urn:uuid:38940a39-85d0-46fe-a026-bc998f7de51c",
                        "type": "Specimen"
                    }
                ],
                "status": "final",
                "subject": {
                    "identifier": {
                        "assigner": {
                            "identifier": {
                                "system": "https://fhir.nhs.uk/Id/ods-organization-code",
                                "value": "X24"
                            }
                        },
                        "system": "https://fhir.nhs.uk/Id/nhs-number",
                        "type": {
                            "coding": [
                                {
                                    "code": "NH",
                                    "system": "http://terminology.hl7.org/CodeSystem/v2-0203"
                                }
                            ]
                        },
                        "value": "9737383257"
                    },
                    "reference": "urn:uuid:1a9d2eda-8aa0-4ca1-bc15-385b1d8ed0dd"
                }
            }
        },
        {
            "fullUrl": "urn:uuid:7fb7a77a-6a2b-4c23-88b8-28d7038eaabb",
            "resource": {
                "resourceType": "Observation",
                "code": {
                    "coding": [
                        {
                            "code": "B0300",
                            "display": "White blood cell (WBC) count"
                        }
                    ]
                },
                "effectiveDateTime": "2018-03-09T15:00:00+00:00",
                "identifier": [
                    {
                        "type": {
                            "coding": [
                                {
                                    "code": "FILL",
                                    "system": "http://terminology.hl7.org/CodeSystem/v2-0203"
                                }
                            ]
                        },
                        "value": "914694928301"
                    }
                ],
                "performer": [
                    {
                        "identifier": {
                            "system": "https://fhir.nhs.uk/Id/ods-organization-code",
                            "value": "699X0"
                        },
                        "type": "Organization"
                    }
                ],
                "referenceRange": [
                    {
                        "text": "4.0-11.0"
                    }
                ],
                "status": "final",
                "subject": {
                    "identifier": {
                        "assigner": {
                            "identifier": {
                                "system": "https://fhir.nhs.uk/Id/ods-organization-code",
                                "value": "X24"
                            }
                        },
                        "system": "https://fhir.nhs.uk/Id/nhs-number",
                        "type": {
                            "coding": [
                                {
                                    "code": "NH",
                                    "system": "http://terminology.hl7.org/CodeSystem/v2-0203"
                                }
                            ]
                        },
                        "value": "9737383257"
                    },
                    "reference": "urn:uuid:1a9d2eda-8aa0-4ca1-bc15-385b1d8ed0dd"
                },
                "valueQuantity": {
                    "system": "http://unitsofmeasure.org",
                    "unit": "x10\\S\\9/L",
                    "value": 3.5
                }
            }
        },
        {
            "fullUrl": "urn:uuid:db838a2a-e31b-47f6-b64a-bca8340d1ac8",
            "resource": {
                "resourceType": "Observation",
                "code": {
                    "coding": [
                        {
                            "code": "B0307",
                            "display": "Haemoglobin (Hb)"
                        }
                    ]
                },
                "effectiveDateTime": "2018-03-09T15:00:00+00:00",
                "identifier": [
                    {
                        "type": {
                            "coding": [
                                {
                                    "code": "FILL",
                                    "system": "http://terminology.hl7.org/CodeSystem/v2-0203"
                                }
                            ]
                        },
                        "value": "914694928301"
                    }
                ],
                "performer": [
                    {
                        "identifier": {
                            "system": "https://fhir.nhs.uk/Id/ods-organization-code",
                            "value": "699X0"
                        },
                        "type": "Organization"
                    }
                ],
                "referenceRange": [
                    {
                        "text": "130-180"
                    }
                ],
                "status": "final",
                "subject": {
                    "identifier": {
                        "assigner": {
                            "identifier": {
                                "system": "https://fhir.nhs.uk/Id/ods-organization-code",
                                "value": "X24"
                            }
                        },
                        "system": "https://fhir.nhs.uk/Id/nhs-number",
                        "type": {
                            "coding": [
                                {
                                    "code": "NH",
                                    "system": "http://terminology.hl7.org/CodeSystem/v2-0203"
                                }
                            ]
                        },
                        "value": "9737383257"
                    },
                    "reference": "urn:uuid:1a9d2eda-8aa0-4ca1-bc15-385b1d8ed0dd"
                },
                "valueQuantity": {
                    "comparator": "<",
                    "system": "http://unitsofmeasure.org",
                    "unit": "g/L",
                    "value": 149
                }
            }
        },
        {
            "fullUrl": "urn:uuid:de63078f-e508-49fa-9238-0b37d291ce8e",
            "resource": {
                "resourceType": "Observation",
                "code": {
                    "coding": [
                        {
                            "code": "B0314",
                            "display": "Platelet (PLT) count"
                        }
                    ]
                },
                "effectiveDateTime": "2018-03-09T15:00:00+00:00",
                "identifier": [
                    {
                        "type": {
                            "coding": [
                                {
                                    "code": "FILL",
                                    "system": "http://terminology.hl7.org/CodeSystem/v2-0203"
                                }
                            ]
                        },
                        "value": "914694928301"
                    }
                ],
                "performer": [
                    {
                        "identifier": {
                            "system": "https://fhir.nhs.uk/Id/ods-organization-code",
                            "value": "699X0"
                        },
                        "type": "Organization"
                    }
                ],
                "referenceRange": [
                    {
                        "text": "150-400"
                    }
                ],
                "status": "final",
                "subject": {
                    "identifier": {
                        "assigner": {
                            "identifier": {
                                "system": "https://fhir.nhs.uk/Id/ods-organization-code",
                                "value": "X24"
                            }
                        },
                        "system": "https://fhir.nhs.uk/Id/nhs-number",
                        "type": {
                            "coding": [
                                {
                                    "code": "NH",
                                    "system": "http://terminology.hl7.org/CodeSystem/v2-0203"
                                }
                            ]
                        },
                        "value": "9737383257"
                    },
                    "reference": "urn:uuid:1a9d2eda-8aa0-4ca1-bc15-385b1d8ed0dd"
                },
                "valueQuantity": {
                    "system": "http://unitsofmeasure.org",
                    "unit": "x10\\S\\9/L",
                    "value": 500
                }
            }
        },
        {
            "fullUrl": "urn:uuid:8a0f24a0-7f62-4a57-80a8-177694e3de81",
            "resource": {
                "resourceType": "Observation",
                "code": {
                    "coding": [
                        {
                            "code": "B0306",
                            "display": "Red blood cell (RBC) count"
                        }
                    ]
                },
                "effectiveDateTime": "2018-03-09T15:00:00+00:00",
                "identifier": [
                    {
                        "type": {
                            "coding": [
                                {
                                    "code": "FILL",
                                    "system": "http://terminology.hl7.org/CodeSystem/v2-0203"
                                }
                            ]
                        },
                        "value": "914694928301"
                    }
                ],
                "performer": [
                    {
                        "identifier": {
                            "system": "https://fhir.nhs.uk/Id/ods-organization-code",
                            "value": "699X0"
                        },
                        "type": "Organization"
                    }
                ],
                "referenceRange": [
                    {
                        "text": "4.50-6.00"
                    }
                ],
                "status": "final",
                "subject": {
                    "identifier": {
                        "assigner": {
                            "identifier": {
                                "system": "https://fhir.nhs.uk/Id/ods-organization-code",
                                "value": "X24"
                            }
                        },
                        "system": "https://fhir.nhs.uk/Id/nhs-number",
                        "type": {
                            "coding": [
                                {
                                    "code": "NH",
                                    "system": "http://terminology.hl7.org/CodeSystem/v2-0203"
                                }
                            ]
                        },
                        "value": "9737383257"
                    },
                    "reference": "urn:uuid:1a9d2eda-8aa0-4ca1-bc15-385b1d8ed0dd"
                },
                "valueQuantity": {
                    "system": "http://unitsofmeasure.org",
                    "unit": "x10\\S\\12/L",
                    "value": 6.0
                }
            }
        },
        {
            "fullUrl": "urn:uuid:88b3bc76-5b02-4871-a9e8-5d7206ff9a0d",
            "resource": {
                "resourceType": "Observation",
                "code": {
                    "coding": [
                        {
                            "code": "B0309",
                            "display": "Mean cell volume (MCV)"
                        }
                    ]
                },
                "effectiveDateTime": "2018-03-09T15:00:00+00:00",
                "identifier": [
                    {
                        "type": {
                            "coding": [
                                {
                                    "code": "FILL",
                                    "system": "http://terminology.hl7.org/CodeSystem/v2-0203"
                                }
                            ]
                        },
                        "value": "914694928301"
                    }
                ],
                "performer": [
                    {
                        "identifier": {
                            "system": "https://fhir.nhs.uk/Id/ods-organization-code",
                            "value": "699X0"
                        },
                        "type": "Organization"
                    }
                ],
                "referenceRange": [
                    {
                        "text": "80-100"
                    }
                ],
                "status": "final",
                "subject": {
                    "identifier": {
                        "assigner": {
                            "identifier": {
                                "system": "https://fhir.nhs.uk/Id/ods-organization-code",
                                "value": "X24"
                            }
                        },
                        "system": "https://fhir.nhs.uk/Id/nhs-number",
                        "type": {
                            "coding": [
                                {
                                    "code": "NH",
                                    "system": "http://terminology.hl7.org/CodeSystem/v2-0203"
                                }
                            ]
                        },
                        "value": "9737383257"
                    },
                    "reference": "urn:uuid:1a9d2eda-8aa0-4ca1-bc15-385b1d8ed0dd"
                },
                "valueCodeableConcept": {
                    "coding": [
                        {
                            "code": "NA",
                            "display": "Not assayed",
                            "system": "ACME"
                        }
                    ]
                }
            }
        },
        {
            "fullUrl": "urn:uuid:e4270be4-2c38-473c-a204-c7c7e4fb6f6e",
            "resource": {
                "resourceType": "Specimen",
                "collection": {
                    "collectedDateTime": "2018-03-09T14:00:00+00:00"
                },
                "identifier": [
                    {
                        "type": {
                            "coding": [
                                {
                                    "code": "FILL",
                                    "system": "http://terminology.hl7.org/CodeSystem/v2-0203"
                                }
                            ]
                        },
                        "value": "9146949283"
                    }
                ],
                "receivedTime": "2018-03-09T15:00:00+00:00",
                "status": "unavailable",
                "subject": {
                    "identifier": {
                        "assigner": {
                            "identifier": {
                                "system": "https://fhir.nhs.uk/Id/ods-organization-code",
                                "value": "X24"
                            }
                        },
                        "system": "https://fhir.nhs.uk/Id/nhs-number",
                        "type": {
                            "coding": [
                                {
                                    "code": "NH",
                                    "system": "http://terminology.hl7.org/CodeSystem/v2-0203"
                                }
                            ]
                        },
                        "value": "9737383257"
                    },
                    "reference": "urn:uuid:1a9d2eda-8aa0-4ca1-bc15-385b1d8ed0dd"
                },
                "type": {
                    "coding": [
                        {
                            "code": "BLOO",
                            "display": "Blood",
                            "system": "ACME"
                        }
                    ]
                }
            }
        },
        {
            "fullUrl": "urn:uuid:e6e92a1e-0ea2-40a7-aac0-20d88ed05c36",
            "resource": {
                "resourceType": "DiagnosticReport",
                "category": [
                    {
                        "coding": [
                            {
                                "code": "GE",
                                "system": "http://terminology.hl7.org/CodeSystem/v2-0074"
                            }
                        ]
                    }
                ],
                "code": {
                    "coding": [
                        {
                            "code": "B0001",
                            "display": "Full blood count"
                        }
                    ]
                },
                "effectiveDateTime": "2018-03-09T15:00:00+00:00",
                "identifier": [
                    {
                        "type": {
                            "coding": [
                                {
                                    "code": "FILL",
                                    "system": "http://terminology.hl7.org/CodeSystem/v2-0203"
                                }
                            ]
                        },
                        "value": "914694928301"
                    }
                ],
                "issued": "2018-03-09T15:00:00+00:00",
                "performer": [
                    {
                        "display": "NHS North West Genomics",
                        "identifier": {
                            "system": "https://fhir.nhs.uk/Id/ods-organization-code",
                            "value": "699X0"
                        },
                        "type": "Organization"
                    }
                ],
                "result": [
                    {
                        "display": "White blood cell (WBC) count",
                        "reference": "urn:uuid:7fb7a77a-6a2b-4c23-88b8-28d7038eaabb",
                        "type": "Observation"
                    },
                    {
                        "display": "Haemoglobin (Hb)",
                        "reference": "urn:uuid:db838a2a-e31b-47f6-b64a-bca8340d1ac8",
                        "type": "Observation"
                    },
                    {
                        "display": "Platelet (PLT) count",
                        "reference": "urn:uuid:de63078f-e508-49fa-9238-0b37d291ce8e",
                        "type": "Observation"
                    },
                    {
                        "display": "Red blood cell (RBC) count",
                        "reference": "urn:uuid:8a0f24a0-7f62-4a57-80a8-177694e3de81",
                        "type": "Observation"
                    },
                    {
                        "display": "Mean cell volume (MCV)",
                        "reference": "urn:uuid:88b3bc76-5b02-4871-a9e8-5d7206ff9a0d",
                        "type": "Observation"
                    }
                ],
                "specimen": [
                    {
                        "reference": "urn:uuid:e4270be4-2c38-473c-a204-c7c7e4fb6f6e",
                        "type": "Specimen"
                    }
                ],
                "status": "final",
                "subject": {
                    "identifier": {
                        "assigner": {
                            "identifier": {
                                "system": "https://fhir.nhs.uk/Id/ods-organization-code",
                                "value": "X24"
                            }
                        },
                        "system": "https://fhir.nhs.uk/Id/nhs-number",
                        "type": {
                            "coding": [
                                {
                                    "code": "NH",
                                    "system": "http://terminology.hl7.org/CodeSystem/v2-0203"
                                }
                            ]
                        },
                        "value": "9737383257"
                    },
                    "reference": "urn:uuid:1a9d2eda-8aa0-4ca1-bc15-385b1d8ed0dd"
                }
            }
        },
        {
            "fullUrl": "urn:uuid:237c6207-6047-4ec8-a63a-f9bb178935e4",
            "resource": {
                "resourceType": "Binary",
                "contentType": "application/pdf",
                "data": "JVBERi0xLjQKJcOkw7zDtsOfCjIgMCBvYmoKPDw...EyNDk0IDAwMDAwIG4gCnRyYWlsZXIKPDwvU2l6ZS"
            }
        },
        {
            "fullUrl": "urn:uuid:c9782bd9-4f45-4439-9d46-4c5c8b1d9f98",
            "resource": {
                "resourceType": "DocumentReference",
                "content": [
                    {
                        "attachment": {
                            "contentType": "application/pdf",
                            "url": "urn:uuid:237c6207-6047-4ec8-a63a-f9bb178935e4"
                        }
                    }
                ],
                "context": {
                    "period": {
                        "end": "2018-11-09T12:38:51+00:00",
                        "start": "2018-11-09T12:38:51+00:00"
                    },
                    "related": [
                        {
                            "identifier": {
                                "assigner": {
                                    "identifier": {
                                        "system": "https://fhir.nhs.uk/Id/ods-organization-code",
                                        "value": "7A4BV"
                                    }
                                },
                                "type": {
                                    "coding": [
                                        {
                                            "code": "FILL",
                                            "system": "http://terminology.hl7.org/CodeSystem/v2-0203"
                                        }
                                    ]
                                },
                                "value": "287018"
                            },
                            "reference": "urn:uuid:1fc5abb4-f9e4-434f-8f0a-39cce5bb5263",
                            "type": "DiagnosticReport"
                        }
                    ]
                },
                "custodian": {
                    "identifier": {
                        "system": "https://fhir.nhs.uk/Id/ods-organization-code",
                        "value": "699X0"
                    },
                    "type": "Organization"
                },
                "date": "2018-11-09T12:38:51+00:00",
                "identifier": [
                    {
                        "assigner": {
                            "identifier": {
                                "system": "https://fhir.nhs.uk/Id/ods-organization-code",
                                "value": "7A4BV"
                            }
                        },
                        "type": {
                            "coding": [
                                {
                                    "code": "FILL",
                                    "system": "http://terminology.hl7.org/CodeSystem/v2-0203"
                                }
                            ]
                        },
                        "value": "287018"
                    }
                ],
                "status": "current",
                "subject": {
                    "identifier": {
                        "assigner": {
                            "identifier": {
                                "system": "https://fhir.nhs.uk/Id/ods-organization-code",
                                "value": "X24"
                            }
                        },
                        "system": "https://fhir.nhs.uk/Id/nhs-number",
                        "type": {
                            "coding": [
                                {
                                    "code": "NH",
                                    "system": "http://terminology.hl7.org/CodeSystem/v2-0203"
                                }
                            ]
                        },
                        "value": "9737383257"
                    },
                    "reference": "urn:uuid:1a9d2eda-8aa0-4ca1-bc15-385b1d8ed0dd"
                },
                "type": {
                    "coding": [
                        {
                            "code": "CATH",
                            "display": "Cardiac Catheter Report",
                            "system": "L"
                        }
                    ]
                }
            }
        },
        {
            "fullUrl": "urn:uuid:c9122061-c2c5-4baf-8229-d3b61fdf959c",
            "resource": {
                "resourceType": "Binary",
                "contentType": "application/pdf",
                "data": "AxNi9Sb290IDE0IDAgUgovSW5mbyAxNSAwIFIKL0lEIFsgPE...KPj4Kc3RhcnR4cmVmCjEyNzg3CiUlRU9GCg=="
            }
        },
        {
            "fullUrl": "urn:uuid:f51ded73-f856-4d04-a6a1-d71c2556ba3a",
            "resource": {
                "resourceType": "DocumentReference",
                "content": [
                    {
                        "attachment": {
                            "contentType": "application/pdf",
                            "url": "urn:uuid:c9122061-c2c5-4baf-8229-d3b61fdf959c"
                        }
                    }
                ],
                "context": {
                    "period": {
                        "end": "2018-11-09T12:38:51+00:00",
                        "start": "2018-11-09T12:38:51+00:00"
                    },
                    "related": [
                        {
                            "identifier": {
                                "assigner": {
                                    "identifier": {
                                        "system": "https://fhir.nhs.uk/Id/ods-organization-code",
                                        "value": "7A4BV"
                                    }
                                },
                                "type": {
                                    "coding": [
                                        {
                                            "code": "FILL",
                                            "system": "http://terminology.hl7.org/CodeSystem/v2-0203"
                                        }
                                    ]
                                },
                                "value": "287018"
                            },
                            "reference": "urn:uuid:1fc5abb4-f9e4-434f-8f0a-39cce5bb5263",
                            "type": "DiagnosticReport"
                        }
                    ]
                },
                "custodian": {
                    "identifier": {
                        "system": "https://fhir.nhs.uk/Id/ods-organization-code",
                        "value": "699X0"
                    },
                    "type": "Organization"
                },
                "date": "2018-11-09T12:38:51+00:00",
                "identifier": [
                    {
                        "assigner": {
                            "identifier": {
                                "system": "https://fhir.nhs.uk/Id/ods-organization-code",
                                "value": "7A4BV"
                            }
                        },
                        "type": {
                            "coding": [
                                {
                                    "code": "FILL",
                                    "system": "http://terminology.hl7.org/CodeSystem/v2-0203"
                                }
                            ]
                        },
                        "value": "287018"
                    }
                ],
                "status": "current",
                "subject": {
                    "identifier": {
                        "assigner": {
                            "identifier": {
                                "system": "https://fhir.nhs.uk/Id/ods-organization-code",
                                "value": "X24"
                            }
                        },
                        "system": "https://fhir.nhs.uk/Id/nhs-number",
                        "type": {
                            "coding": [
                                {
                                    "code": "NH",
                                    "system": "http://terminology.hl7.org/CodeSystem/v2-0203"
                                }
                            ]
                        },
                        "value": "9737383257"
                    },
                    "reference": "urn:uuid:1a9d2eda-8aa0-4ca1-bc15-385b1d8ed0dd"
                },
                "type": {
                    "coding": [
                        {
                            "code": "CATH",
                            "display": "Cardiac Catheter Report",
                            "system": "L"
                        }
                    ]
                }
            }
        },
        {
            "fullUrl": "urn:uuid:1fc5abb4-f9e4-434f-8f0a-39cce5bb5263",
            "resource": {
                "resourceType": "DiagnosticReport",
                "category": [
                    {
                        "coding": [
                            {
                                "code": "GE",
                                "system": "http://terminology.hl7.org/CodeSystem/v2-0074"
                            }
                        ]
                    }
                ],
                "code": {
                    "coding": [
                        {
                            "code": "CATH",
                            "display": "Cardiac Catheter Report",
                            "system": "L"
                        }
                    ]
                },
                "effectiveDateTime": "2018-11-09T12:38:51+00:00",
                "extension": [
                    {
                        "extension": [
                            {
                                "url": "reference",
                                "valueReference": {
                                    "display": "Cardiac Catheter Report",
                                    "reference": "urn:uuid:c9782bd9-4f45-4439-9d46-4c5c8b1d9f98",
                                    "type": "DocumentReference"
                                }
                            },
                            {
                                "url": "type",
                                "valueCodeableConcept": {
                                    "coding": [
                                        {
                                            "code": "SCI",
                                            "system": "http://hl7.org/fhir/diagnosticreport-relevant-information-types"
                                        }
                                    ]
                                }
                            }
                        ],
                        "url": "http://hl7.org/fhir/5.0/StructureDefinition/extension-DiagnosticReport.supportingInfo"
                    },
                    {
                        "extension": [
                            {
                                "url": "reference",
                                "valueReference": {
                                    "display": "Cardiac Catheter Report",
                                    "reference": "urn:uuid:f51ded73-f856-4d04-a6a1-d71c2556ba3a",
                                    "type": "DocumentReference"
                                }
                            },
                            {
                                "url": "type",
                                "valueCodeableConcept": {
                                    "coding": [
                                        {
                                            "code": "SCI",
                                            "system": "http://hl7.org/fhir/diagnosticreport-relevant-information-types"
                                        }
                                    ]
                                }
                            }
                        ],
                        "url": "http://hl7.org/fhir/5.0/StructureDefinition/extension-DiagnosticReport.supportingInfo"
                    }
                ],
                "identifier": [
                    {
                        "assigner": {
                            "identifier": {
                                "system": "https://fhir.nhs.uk/Id/ods-organization-code",
                                "value": "7A4BV"
                            }
                        },
                        "type": {
                            "coding": [
                                {
                                    "code": "FILL",
                                    "system": "http://terminology.hl7.org/CodeSystem/v2-0203"
                                }
                            ]
                        },
                        "value": "287018"
                    }
                ],
                "issued": "2018-11-09T12:48:18+00:00",
                "performer": [
                    {
                        "display": "NHS North West Genomics",
                        "identifier": {
                            "system": "https://fhir.nhs.uk/Id/ods-organization-code",
                            "value": "699X0"
                        },
                        "type": "Organization"
                    }
                ],
                "status": "partial",
                "subject": {
                    "identifier": {
                        "assigner": {
                            "identifier": {
                                "system": "https://fhir.nhs.uk/Id/ods-organization-code",
                                "value": "X24"
                            }
                        },
                        "system": "https://fhir.nhs.uk/Id/nhs-number",
                        "type": {
                            "coding": [
                                {
                                    "code": "NH",
                                    "system": "http://terminology.hl7.org/CodeSystem/v2-0203"
                                }
                            ]
                        },
                        "value": "9737383257"
                    },
                    "reference": "urn:uuid:1a9d2eda-8aa0-4ca1-bc15-385b1d8ed0dd"
                }
            }
        },
        {
            "fullUrl": "urn:uuid:0a89a94e-fd56-4257-b0ae-53959a067a36",
            "resource": {
                "resourceType": "Binary",
                "contentType": "application/pdf",
                "data": "JVBERi0xLjQKJcOkw7zDtsOfCjIgMCBvYm...VmCjEyNzg3CiUlRU9GCg=="
            }
        },
        {
            "fullUrl": "urn:uuid:f9e5f2b0-780a-4164-bf44-9aff1d0644e7",
            "resource": {
                "resourceType": "DocumentReference",
                "content": [
                    {
                        "attachment": {
                            "contentType": "application/pdf",
                            "url": "urn:uuid:0a89a94e-fd56-4257-b0ae-53959a067a36"
                        }
                    }
                ],
                "context": {
                    "period": {
                        "end": "2018-11-09T12:38:51+00:00",
                        "start": "2018-11-09T12:38:51+00:00"
                    },
                    "related": [
                        {
                            "identifier": {
                                "assigner": {
                                    "identifier": {
                                        "system": "https://fhir.nhs.uk/Id/ods-organization-code",
                                        "value": "7A4BV"
                                    }
                                },
                                "type": {
                                    "coding": [
                                        {
                                            "code": "FILL",
                                            "system": "http://terminology.hl7.org/CodeSystem/v2-0203"
                                        }
                                    ]
                                },
                                "value": "A28701"
                            },
                            "reference": "urn:uuid:05fb9804-31a5-433a-b76e-f8002a902954",
                            "type": "DiagnosticReport"
                        }
                    ]
                },
                "custodian": {
                    "identifier": {
                        "system": "https://fhir.nhs.uk/Id/ods-organization-code",
                        "value": "699X0"
                    },
                    "type": "Organization"
                },
                "date": "2018-11-09T12:38:51+00:00",
                "identifier": [
                    {
                        "assigner": {
                            "identifier": {
                                "system": "https://fhir.nhs.uk/Id/ods-organization-code",
                                "value": "7A4BV"
                            }
                        },
                        "type": {
                            "coding": [
                                {
                                    "code": "FILL",
                                    "system": "http://terminology.hl7.org/CodeSystem/v2-0203"
                                }
                            ]
                        },
                        "value": "A28701"
                    }
                ],
                "status": "current",
                "subject": {
                    "identifier": {
                        "assigner": {
                            "identifier": {
                                "system": "https://fhir.nhs.uk/Id/ods-organization-code",
                                "value": "X24"
                            }
                        },
                        "system": "https://fhir.nhs.uk/Id/nhs-number",
                        "type": {
                            "coding": [
                                {
                                    "code": "NH",
                                    "system": "http://terminology.hl7.org/CodeSystem/v2-0203"
                                }
                            ]
                        },
                        "value": "9737383257"
                    },
                    "reference": "urn:uuid:1a9d2eda-8aa0-4ca1-bc15-385b1d8ed0dd"
                },
                "type": {
                    "coding": [
                        {
                            "code": "Appointment",
                            "display": "Appointment Letter",
                            "system": "L"
                        }
                    ]
                }
            }
        },
        {
            "fullUrl": "urn:uuid:05fb9804-31a5-433a-b76e-f8002a902954",
            "resource": {
                "resourceType": "DiagnosticReport",
                "category": [
                    {
                        "coding": [
                            {
                                "code": "GE",
                                "system": "http://terminology.hl7.org/CodeSystem/v2-0074"
                            }
                        ]
                    }
                ],
                "code": {
                    "coding": [
                        {
                            "code": "Appointment",
                            "display": "AppointmentLetter",
                            "system": "L"
                        }
                    ]
                },
                "effectiveDateTime": "2018-11-09T12:38:51+00:00",
                "extension": [
                    {
                        "extension": [
                            {
                                "url": "reference",
                                "valueReference": {
                                    "display": "Appointment Letter",
                                    "reference": "urn:uuid:f9e5f2b0-780a-4164-bf44-9aff1d0644e7",
                                    "type": "DocumentReference"
                                }
                            },
                            {
                                "url": "type",
                                "valueCodeableConcept": {
                                    "coding": [
                                        {
                                            "code": "SCI",
                                            "system": "http://hl7.org/fhir/diagnosticreport-relevant-information-types"
                                        }
                                    ]
                                }
                            }
                        ],
                        "url": "http://hl7.org/fhir/5.0/StructureDefinition/extension-DiagnosticReport.supportingInfo"
                    }
                ],
                "identifier": [
                    {
                        "assigner": {
                            "identifier": {
                                "system": "https://fhir.nhs.uk/Id/ods-organization-code",
                                "value": "7A4BV"
                            }
                        },
                        "type": {
                            "coding": [
                                {
                                    "code": "FILL",
                                    "system": "http://terminology.hl7.org/CodeSystem/v2-0203"
                                }
                            ]
                        },
                        "value": "A28701"
                    }
                ],
                "issued": "2018-11-09T12:48:18+00:00",
                "performer": [
                    {
                        "display": "NHS North West Genomics",
                        "identifier": {
                            "system": "https://fhir.nhs.uk/Id/ods-organization-code",
                            "value": "699X0"
                        },
                        "type": "Organization"
                    }
                ],
                "status": "partial",
                "subject": {
                    "identifier": {
                        "assigner": {
                            "identifier": {
                                "system": "https://fhir.nhs.uk/Id/ods-organization-code",
                                "value": "X24"
                            }
                        },
                        "system": "https://fhir.nhs.uk/Id/nhs-number",
                        "type": {
                            "coding": [
                                {
                                    "code": "NH",
                                    "system": "http://terminology.hl7.org/CodeSystem/v2-0203"
                                }
                            ]
                        },
                        "value": "9737383257"
                    },
                    "reference": "urn:uuid:1a9d2eda-8aa0-4ca1-bc15-385b1d8ed0dd"
                }
            }
        },
        {
            "fullUrl": "urn:uuid:2be8974d-a741-462d-b1d6-708601785f43",
            "resource": {
                "resourceType": "Observation",
                "code": {
                    "coding": [
                        {
                            "code": "INTER",
                            "display": "INTERPRETATION",
                            "system": "L"
                        }
                    ]
                },
                "effectiveDateTime": "2019-05-14T10:24:17+00:00",
                "identifier": [
                    {
                        "type": {
                            "coding": [
                                {
                                    "code": "FILL",
                                    "system": "http://terminology.hl7.org/CodeSystem/v2-0203"
                                }
                            ]
                        },
                        "value": "190000041:27491"
                    }
                ],
                "note": [
                    {
                        "text": "Interpreted by: ACME Super User, Signed on 05/14/2019 at 10:24\\n"
                    }
                ],
                "performer": [
                    {
                        "identifier": {
                            "system": "https://fhir.nhs.uk/Id/ods-organization-code",
                            "value": "699X0"
                        },
                        "type": "Organization"
                    }
                ],
                "status": "final",
                "subject": {
                    "identifier": {
                        "assigner": {
                            "identifier": {
                                "system": "https://fhir.nhs.uk/Id/ods-organization-code",
                                "value": "X24"
                            }
                        },
                        "system": "https://fhir.nhs.uk/Id/nhs-number",
                        "type": {
                            "coding": [
                                {
                                    "code": "NH",
                                    "system": "http://terminology.hl7.org/CodeSystem/v2-0203"
                                }
                            ]
                        },
                        "value": "9737383257"
                    },
                    "reference": "urn:uuid:1a9d2eda-8aa0-4ca1-bc15-385b1d8ed0dd"
                },
                "valueString": "rwtu"
            }
        },
        {
            "fullUrl": "urn:uuid:cad9f8df-cc19-4558-9c3e-055cb82152d6",
            "resource": {
                "resourceType": "Observation",
                "code": {
                    "coding": [
                        {
                            "code": "RESTE",
                            "display": "Reason for testing",
                            "system": "L"
                        }
                    ]
                },
                "effectiveDateTime": "2019-05-14T10:24:17+00:00",
                "identifier": [
                    {
                        "type": {
                            "coding": [
                                {
                                    "code": "FILL",
                                    "system": "http://terminology.hl7.org/CodeSystem/v2-0203"
                                }
                            ]
                        },
                        "value": "190000041:27491"
                    }
                ],
                "performer": [
                    {
                        "identifier": {
                            "system": "https://fhir.nhs.uk/Id/ods-organization-code",
                            "value": "699X0"
                        },
                        "type": "Organization"
                    }
                ],
                "status": "final",
                "subject": {
                    "identifier": {
                        "assigner": {
                            "identifier": {
                                "system": "https://fhir.nhs.uk/Id/ods-organization-code",
                                "value": "X24"
                            }
                        },
                        "system": "https://fhir.nhs.uk/Id/nhs-number",
                        "type": {
                            "coding": [
                                {
                                    "code": "NH",
                                    "system": "http://terminology.hl7.org/CodeSystem/v2-0203"
                                }
                            ]
                        },
                        "value": "9737383257"
                    },
                    "reference": "urn:uuid:1a9d2eda-8aa0-4ca1-bc15-385b1d8ed0dd"
                },
                "valueString": "erw"
            }
        },
        {
            "fullUrl": "urn:uuid:7efacc4a-fe00-4c9e-b6b6-38fe1edaa423",
            "resource": {
                "resourceType": "Observation",
                "code": {
                    "coding": [
                        {
                            "code": "TMETH",
                            "display": "Test Methodology",
                            "system": "L"
                        }
                    ]
                },
                "effectiveDateTime": "2019-05-14T10:24:17+00:00",
                "identifier": [
                    {
                        "type": {
                            "coding": [
                                {
                                    "code": "FILL",
                                    "system": "http://terminology.hl7.org/CodeSystem/v2-0203"
                                }
                            ]
                        },
                        "value": "190000041:27491"
                    }
                ],
                "performer": [
                    {
                        "identifier": {
                            "system": "https://fhir.nhs.uk/Id/ods-organization-code",
                            "value": "699X0"
                        },
                        "type": "Organization"
                    }
                ],
                "status": "final",
                "subject": {
                    "identifier": {
                        "assigner": {
                            "identifier": {
                                "system": "https://fhir.nhs.uk/Id/ods-organization-code",
                                "value": "X24"
                            }
                        },
                        "system": "https://fhir.nhs.uk/Id/nhs-number",
                        "type": {
                            "coding": [
                                {
                                    "code": "NH",
                                    "system": "http://terminology.hl7.org/CodeSystem/v2-0203"
                                }
                            ]
                        },
                        "value": "9737383257"
                    },
                    "reference": "urn:uuid:1a9d2eda-8aa0-4ca1-bc15-385b1d8ed0dd"
                },
                "valueString": "sfjg"
            }
        },
        {
            "fullUrl": "urn:uuid:b725cac1-439c-41b3-9107-16024797833d",
            "resource": {
                "resourceType": "Observation",
                "code": {
                    "coding": [
                        {
                            "code": "RESUM",
                            "display": "Result summary",
                            "system": "L"
                        }
                    ]
                },
                "effectiveDateTime": "2019-05-14T10:24:17+00:00",
                "identifier": [
                    {
                        "type": {
                            "coding": [
                                {
                                    "code": "FILL",
                                    "system": "http://terminology.hl7.org/CodeSystem/v2-0203"
                                }
                            ]
                        },
                        "value": "190000041:27491"
                    }
                ],
                "performer": [
                    {
                        "identifier": {
                            "system": "https://fhir.nhs.uk/Id/ods-organization-code",
                            "value": "699X0"
                        },
                        "type": "Organization"
                    }
                ],
                "status": "final",
                "subject": {
                    "identifier": {
                        "assigner": {
                            "identifier": {
                                "system": "https://fhir.nhs.uk/Id/ods-organization-code",
                                "value": "X24"
                            }
                        },
                        "system": "https://fhir.nhs.uk/Id/nhs-number",
                        "type": {
                            "coding": [
                                {
                                    "code": "NH",
                                    "system": "http://terminology.hl7.org/CodeSystem/v2-0203"
                                }
                            ]
                        },
                        "value": "9737383257"
                    },
                    "reference": "urn:uuid:1a9d2eda-8aa0-4ca1-bc15-385b1d8ed0dd"
                },
                "valueString": "tyityu"
            }
        },
        {
            "fullUrl": "urn:uuid:411d4aeb-b9c6-4b53-9fde-083e3fea5a85",
            "resource": {
                "resourceType": "Observation",
                "code": {
                    "coding": [
                        {
                            "code": "PATPH",
                            "display": "Patient phenotype",
                            "system": "L"
                        }
                    ]
                },
                "effectiveDateTime": "2019-05-14T10:24:17+00:00",
                "identifier": [
                    {
                        "type": {
                            "coding": [
                                {
                                    "code": "FILL",
                                    "system": "http://terminology.hl7.org/CodeSystem/v2-0203"
                                }
                            ]
                        },
                        "value": "190000041:27491"
                    }
                ],
                "performer": [
                    {
                        "identifier": {
                            "system": "https://fhir.nhs.uk/Id/ods-organization-code",
                            "value": "699X0"
                        },
                        "type": "Organization"
                    }
                ],
                "status": "final",
                "subject": {
                    "identifier": {
                        "assigner": {
                            "identifier": {
                                "system": "https://fhir.nhs.uk/Id/ods-organization-code",
                                "value": "X24"
                            }
                        },
                        "system": "https://fhir.nhs.uk/Id/nhs-number",
                        "type": {
                            "coding": [
                                {
                                    "code": "NH",
                                    "system": "http://terminology.hl7.org/CodeSystem/v2-0203"
                                }
                            ]
                        },
                        "value": "9737383257"
                    },
                    "reference": "urn:uuid:1a9d2eda-8aa0-4ca1-bc15-385b1d8ed0dd"
                },
                "valueString": "ghfjg"
            }
        },
        {
            "fullUrl": "urn:uuid:6780849a-5bc7-4d11-9589-cf3acc72b886",
            "resource": {
                "resourceType": "Observation",
                "code": {
                    "coding": [
                        {
                            "code": "FOLL",
                            "display": "Follow-up",
                            "system": "L"
                        }
                    ]
                },
                "effectiveDateTime": "2019-05-14T10:24:17+00:00",
                "identifier": [
                    {
                        "type": {
                            "coding": [
                                {
                                    "code": "FILL",
                                    "system": "http://terminology.hl7.org/CodeSystem/v2-0203"
                                }
                            ]
                        },
                        "value": "190000041:27491"
                    }
                ],
                "performer": [
                    {
                        "identifier": {
                            "system": "https://fhir.nhs.uk/Id/ods-organization-code",
                            "value": "699X0"
                        },
                        "type": "Organization"
                    }
                ],
                "status": "final",
                "subject": {
                    "identifier": {
                        "assigner": {
                            "identifier": {
                                "system": "https://fhir.nhs.uk/Id/ods-organization-code",
                                "value": "X24"
                            }
                        },
                        "system": "https://fhir.nhs.uk/Id/nhs-number",
                        "type": {
                            "coding": [
                                {
                                    "code": "NH",
                                    "system": "http://terminology.hl7.org/CodeSystem/v2-0203"
                                }
                            ]
                        },
                        "value": "9737383257"
                    },
                    "reference": "urn:uuid:1a9d2eda-8aa0-4ca1-bc15-385b1d8ed0dd"
                },
                "valueString": "yue"
            }
        },
        {
            "fullUrl": "urn:uuid:a95f70ef-5b7a-4d8e-8aa2-ef09a254982e",
            "resource": {
                "resourceType": "Binary",
                "contentType": "application/pdf",
                "data": ""
            }
        },
        {
            "fullUrl": "urn:uuid:d6ce9270-73f0-427f-833c-ee8e550d5886",
            "resource": {
                "resourceType": "DocumentReference",
                "content": [
                    {
                        "attachment": {
                            "contentType": "application/pdf",
                            "url": "urn:uuid:a95f70ef-5b7a-4d8e-8aa2-ef09a254982e"
                        }
                    }
                ],
                "context": {
                    "period": {
                        "end": "2019-05-14T10:24:17+00:00",
                        "start": "2019-05-14T10:24:17+00:00"
                    },
                    "related": [
                        {
                            "identifier": {
                                "type": {
                                    "coding": [
                                        {
                                            "code": "FILL",
                                            "system": "http://terminology.hl7.org/CodeSystem/v2-0203"
                                        }
                                    ]
                                },
                                "value": "190000041:27491"
                            },
                            "reference": "urn:uuid:bc1acbb8-157b-4a72-84d7-8d1802374e50",
                            "type": "DiagnosticReport"
                        }
                    ]
                },
                "custodian": {
                    "identifier": {
                        "system": "https://fhir.nhs.uk/Id/ods-organization-code",
                        "value": "699X0"
                    },
                    "type": "Organization"
                },
                "date": "2019-05-14T10:24:17+00:00",
                "identifier": [
                    {
                        "type": {
                            "coding": [
                                {
                                    "code": "FILL",
                                    "system": "http://terminology.hl7.org/CodeSystem/v2-0203"
                                }
                            ]
                        },
                        "value": "190000041:27491"
                    }
                ],
                "status": "current",
                "subject": {
                    "identifier": {
                        "assigner": {
                            "identifier": {
                                "system": "https://fhir.nhs.uk/Id/ods-organization-code",
                                "value": "X24"
                            }
                        },
                        "system": "https://fhir.nhs.uk/Id/nhs-number",
                        "type": {
                            "coding": [
                                {
                                    "code": "NH",
                                    "system": "http://terminology.hl7.org/CodeSystem/v2-0203"
                                }
                            ]
                        },
                        "value": "9737383257"
                    },
                    "reference": "urn:uuid:1a9d2eda-8aa0-4ca1-bc15-385b1d8ed0dd"
                },
                "type": {
                    "coding": [
                        {
                            "code": "823781000000108",
                            "display": "MDT (multidisciplinary team) letter",
                            "system": "http://snomed.info/sct"
                        }
                    ]
                }
            }
        },
        {
            "fullUrl": "urn:uuid:7d5ce428-0eab-45d9-a41c-7345e7301a2b",
            "resource": {
                "resourceType": "Observation",
                "code": {
                    "coding": [
                        {
                            "code": "RESLT",
                            "display": "Result",
                            "system": "L"
                        }
                    ]
                },
                "effectiveDateTime": "2019-05-14T10:24:17+00:00",
                "identifier": [
                    {
                        "type": {
                            "coding": [
                                {
                                    "code": "FILL",
                                    "system": "http://terminology.hl7.org/CodeSystem/v2-0203"
                                }
                            ]
                        },
                        "value": "190000041:27491"
                    }
                ],
                "performer": [
                    {
                        "identifier": {
                            "system": "https://fhir.nhs.uk/Id/ods-organization-code",
                            "value": "699X0"
                        },
                        "type": "Organization"
                    }
                ],
                "status": "final",
                "subject": {
                    "identifier": {
                        "assigner": {
                            "identifier": {
                                "system": "https://fhir.nhs.uk/Id/ods-organization-code",
                                "value": "X24"
                            }
                        },
                        "system": "https://fhir.nhs.uk/Id/nhs-number",
                        "type": {
                            "coding": [
                                {
                                    "code": "NH",
                                    "system": "http://terminology.hl7.org/CodeSystem/v2-0203"
                                }
                            ]
                        },
                        "value": "9737383257"
                    },
                    "reference": "urn:uuid:1a9d2eda-8aa0-4ca1-bc15-385b1d8ed0dd"
                },
                "valueString": "dhjhd"
            }
        },
        {
            "fullUrl": "urn:uuid:a61205bf-c41d-4c6e-835e-a08792dde410",
            "resource": {
                "resourceType": "Observation",
                "code": {
                    "coding": [
                        {
                            "code": "GRFALN1",
                            "display": "AlphaNumeric Generic Result Field 1",
                            "system": "L"
                        }
                    ]
                },
                "effectiveDateTime": "2019-05-14T10:23:35+00:00",
                "identifier": [
                    {
                        "type": {
                            "coding": [
                                {
                                    "code": "FILL",
                                    "system": "http://terminology.hl7.org/CodeSystem/v2-0203"
                                }
                            ]
                        },
                        "value": "190000041:27491"
                    }
                ],
                "performer": [
                    {
                        "identifier": {
                            "system": "https://fhir.nhs.uk/Id/ods-organization-code",
                            "value": "699X0"
                        },
                        "type": "Organization"
                    }
                ],
                "status": "final",
                "subject": {
                    "identifier": {
                        "assigner": {
                            "identifier": {
                                "system": "https://fhir.nhs.uk/Id/ods-organization-code",
                                "value": "X24"
                            }
                        },
                        "system": "https://fhir.nhs.uk/Id/nhs-number",
                        "type": {
                            "coding": [
                                {
                                    "code": "NH",
                                    "system": "http://terminology.hl7.org/CodeSystem/v2-0203"
                                }
                            ]
                        },
                        "value": "9737383257"
                    },
                    "reference": "urn:uuid:1a9d2eda-8aa0-4ca1-bc15-385b1d8ed0dd"
                },
                "valueString": "234dfsgsg"
            }
        },
        {
            "fullUrl": "urn:uuid:f4b11ca8-489e-43a3-b18b-adf3ef4c87b2",
            "resource": {
                "resourceType": "Binary",
                "contentType": "application/pdf",
                "data": "JVBERi0xLjMKJeLjz9MKMiAwIG9iago8PC..."
            }
        },
        {
            "fullUrl": "urn:uuid:9f7966eb-11ad-4d32-8600-410d4c80c836",
            "resource": {
                "resourceType": "DocumentReference",
                "content": [
                    {
                        "attachment": {
                            "contentType": "application/pdf",
                            "url": "urn:uuid:f4b11ca8-489e-43a3-b18b-adf3ef4c87b2"
                        }
                    }
                ],
                "context": {
                    "period": {
                        "end": "2019-05-14T10:23:35+00:00",
                        "start": "2019-05-14T10:23:35+00:00"
                    },
                    "related": [
                        {
                            "identifier": {
                                "type": {
                                    "coding": [
                                        {
                                            "code": "FILL",
                                            "system": "http://terminology.hl7.org/CodeSystem/v2-0203"
                                        }
                                    ]
                                },
                                "value": "190000041:27491"
                            },
                            "reference": "urn:uuid:bc1acbb8-157b-4a72-84d7-8d1802374e50",
                            "type": "DiagnosticReport"
                        }
                    ]
                },
                "custodian": {
                    "identifier": {
                        "system": "https://fhir.nhs.uk/Id/ods-organization-code",
                        "value": "699X0"
                    },
                    "type": "Organization"
                },
                "date": "2019-05-14T10:23:35+00:00",
                "identifier": [
                    {
                        "type": {
                            "coding": [
                                {
                                    "code": "FILL",
                                    "system": "http://terminology.hl7.org/CodeSystem/v2-0203"
                                }
                            ]
                        },
                        "value": "190000041:27491"
                    }
                ],
                "status": "current",
                "subject": {
                    "identifier": {
                        "assigner": {
                            "identifier": {
                                "system": "https://fhir.nhs.uk/Id/ods-organization-code",
                                "value": "X24"
                            }
                        },
                        "system": "https://fhir.nhs.uk/Id/nhs-number",
                        "type": {
                            "coding": [
                                {
                                    "code": "NH",
                                    "system": "http://terminology.hl7.org/CodeSystem/v2-0203"
                                }
                            ]
                        },
                        "value": "9737383257"
                    },
                    "reference": "urn:uuid:1a9d2eda-8aa0-4ca1-bc15-385b1d8ed0dd"
                },
                "type": {
                    "coding": [
                        {
                            "code": "MOLT",
                            "display": "MOL TEST NAME",
                            "system": "L"
                        }
                    ]
                }
            }
        },
        {
            "fullUrl": "urn:uuid:dd348197-3476-4397-91b5-4f7896cbf50b",
            "resource": {
                "resourceType": "DocumentReference",
                "content": [
                    {
                        "attachment": {
                            "url": "http://documents.example.com/document123.pdf"
                        }
                    }
                ],
                "context": {
                    "period": {
                        "end": "2019-05-14T10:23:35+00:00",
                        "start": "2019-05-14T10:23:35+00:00"
                    },
                    "related": [
                        {
                            "identifier": {
                                "type": {
                                    "coding": [
                                        {
                                            "code": "FILL",
                                            "system": "http://terminology.hl7.org/CodeSystem/v2-0203"
                                        }
                                    ]
                                },
                                "value": "190000041:27491"
                            },
                            "reference": "urn:uuid:bc1acbb8-157b-4a72-84d7-8d1802374e50",
                            "type": "DiagnosticReport"
                        }
                    ]
                },
                "custodian": {
                    "identifier": {
                        "system": "https://fhir.nhs.uk/Id/ods-organization-code",
                        "value": "699X0"
                    },
                    "type": "Organization"
                },
                "date": "2019-05-14T10:23:35+00:00",
                "identifier": [
                    {
                        "type": {
                            "coding": [
                                {
                                    "code": "FILL",
                                    "system": "http://terminology.hl7.org/CodeSystem/v2-0203"
                                }
                            ]
                        },
                        "value": "190000041:27491"
                    }
                ],
                "status": "current",
                "subject": {
                    "identifier": {
                        "assigner": {
                            "identifier": {
                                "system": "https://fhir.nhs.uk/Id/ods-organization-code",
                                "value": "X24"
                            }
                        },
                        "system": "https://fhir.nhs.uk/Id/nhs-number",
                        "type": {
                            "coding": [
                                {
                                    "code": "NH",
                                    "system": "http://terminology.hl7.org/CodeSystem/v2-0203"
                                }
                            ]
                        },
                        "value": "9737383257"
                    },
                    "reference": "urn:uuid:1a9d2eda-8aa0-4ca1-bc15-385b1d8ed0dd"
                },
                "type": {
                    "coding": [
                        {
                            "code": "MOLT",
                            "display": "MOL TEST NAME",
                            "system": "L"
                        }
                    ]
                }
            }
        },
        {
            "fullUrl": "urn:uuid:f6bb8537-3fac-4355-9f86-ac3add2df5cd",
            "resource": {
                "resourceType": "Specimen",
                "identifier": [
                    {
                        "type": {
                            "coding": [
                                {
                                    "code": "PLAC",
                                    "system": "http://terminology.hl7.org/CodeSystem/v2-0203"
                                }
                            ]
                        },
                        "value": "190000041:27491"
                    }
                ],
                "receivedTime": "2019-05-14T10:20:00+00:00",
                "status": "unavailable",
                "subject": {
                    "identifier": {
                        "assigner": {
                            "identifier": {
                                "system": "https://fhir.nhs.uk/Id/ods-organization-code",
                                "value": "X24"
                            }
                        },
                        "system": "https://fhir.nhs.uk/Id/nhs-number",
                        "type": {
                            "coding": [
                                {
                                    "code": "NH",
                                    "system": "http://terminology.hl7.org/CodeSystem/v2-0203"
                                }
                            ]
                        },
                        "value": "9737383257"
                    },
                    "reference": "urn:uuid:1a9d2eda-8aa0-4ca1-bc15-385b1d8ed0dd"
                }
            }
        },
        {
            "fullUrl": "urn:uuid:bc1acbb8-157b-4a72-84d7-8d1802374e50",
            "resource": {
                "resourceType": "DiagnosticReport",
                "category": [
                    {
                        "coding": [
                            {
                                "code": "GE",
                                "system": "http://terminology.hl7.org/CodeSystem/v2-0074"
                            }
                        ]
                    }
                ],
                "code": {
                    "coding": [
                        {
                            "code": "MOLT",
                            "display": "MOL TEST NAME",
                            "system": "L"
                        }
                    ]
                },
                "effectiveDateTime": "2019-05-14T10:20:00+00:00",
                "extension": [
                    {
                        "extension": [
                            {
                                "url": "reference",
                                "valueReference": {
                                    "display": "MDT (multidisciplinary team) letter",
                                    "reference": "urn:uuid:d6ce9270-73f0-427f-833c-ee8e550d5886",
                                    "type": "DocumentReference"
                                }
                            },
                            {
                                "url": "type",
                                "valueCodeableConcept": {
                                    "coding": [
                                        {
                                            "code": "SCI",
                                            "system": "http://hl7.org/fhir/diagnosticreport-relevant-information-types"
                                        }
                                    ]
                                }
                            }
                        ],
                        "url": "http://hl7.org/fhir/5.0/StructureDefinition/extension-DiagnosticReport.supportingInfo"
                    },
                    {
                        "extension": [
                            {
                                "url": "reference",
                                "valueReference": {
                                    "display": "MOL TEST NAME",
                                    "reference": "urn:uuid:9f7966eb-11ad-4d32-8600-410d4c80c836",
                                    "type": "DocumentReference"
                                }
                            },
                            {
                                "url": "type",
                                "valueCodeableConcept": {
                                    "coding": [
                                        {
                                            "code": "SCI",
                                            "system": "http://hl7.org/fhir/diagnosticreport-relevant-information-types"
                                        }
                                    ]
                                }
                            }
                        ],
                        "url": "http://hl7.org/fhir/5.0/StructureDefinition/extension-DiagnosticReport.supportingInfo"
                    },
                    {
                        "extension": [
                            {
                                "url": "reference",
                                "valueReference": {
                                    "display": "MOL TEST NAME",
                                    "reference": "urn:uuid:dd348197-3476-4397-91b5-4f7896cbf50b",
                                    "type": "DocumentReference"
                                }
                            },
                            {
                                "url": "type",
                                "valueCodeableConcept": {
                                    "coding": [
                                        {
                                            "code": "SCI",
                                            "system": "http://hl7.org/fhir/diagnosticreport-relevant-information-types"
                                        }
                                    ]
                                }
                            }
                        ],
                        "url": "http://hl7.org/fhir/5.0/StructureDefinition/extension-DiagnosticReport.supportingInfo"
                    }
                ],
                "identifier": [
                    {
                        "type": {
                            "coding": [
                                {
                                    "code": "FILL",
                                    "system": "http://terminology.hl7.org/CodeSystem/v2-0203"
                                }
                            ]
                        },
                        "value": "190000041:27491"
                    }
                ],
                "issued": "2019-05-14T10:24:17+00:00",
                "performer": [
                    {
                        "extension": [
                            {
                                "url": "http://hl7.org/fhir/StructureDefinition/event-performerFunction",
                                "valueCodeableConcept": {
                                    "coding": [
                                        {
                                            "code": "SPRF",
                                            "system": "http://terminology.hl7.org/CodeSystem/v3-ParticipationType"
                                        }
                                    ]
                                }
                            }
                        ]
                    },
                    {
                        "display": "NHS North West Genomics",
                        "identifier": {
                            "system": "https://fhir.nhs.uk/Id/ods-organization-code",
                            "value": "699X0"
                        },
                        "type": "Organization"
                    }
                ],
                "result": [
                    {
                        "display": "INTERPRETATION",
                        "reference": "urn:uuid:2be8974d-a741-462d-b1d6-708601785f43",
                        "type": "Observation"
                    },
                    {
                        "display": "Reason for testing",
                        "reference": "urn:uuid:cad9f8df-cc19-4558-9c3e-055cb82152d6",
                        "type": "Observation"
                    },
                    {
                        "display": "Test Methodology",
                        "reference": "urn:uuid:7efacc4a-fe00-4c9e-b6b6-38fe1edaa423",
                        "type": "Observation"
                    },
                    {
                        "display": "Result summary",
                        "reference": "urn:uuid:b725cac1-439c-41b3-9107-16024797833d",
                        "type": "Observation"
                    },
                    {
                        "display": "Patient phenotype",
                        "reference": "urn:uuid:411d4aeb-b9c6-4b53-9fde-083e3fea5a85",
                        "type": "Observation"
                    },
                    {
                        "display": "Follow-up",
                        "reference": "urn:uuid:6780849a-5bc7-4d11-9589-cf3acc72b886",
                        "type": "Observation"
                    },
                    {
                        "display": "Result",
                        "reference": "urn:uuid:7d5ce428-0eab-45d9-a41c-7345e7301a2b",
                        "type": "Observation"
                    },
                    {
                        "display": "AlphaNumeric Generic Result Field 1",
                        "reference": "urn:uuid:a61205bf-c41d-4c6e-835e-a08792dde410",
                        "type": "Observation"
                    }
                ],
                "specimen": [
                    {
                        "reference": "urn:uuid:f6bb8537-3fac-4355-9f86-ac3add2df5cd",
                        "type": "Specimen"
                    }
                ],
                "status": "final",
                "subject": {
                    "identifier": {
                        "assigner": {
                            "identifier": {
                                "system": "https://fhir.nhs.uk/Id/ods-organization-code",
                                "value": "X24"
                            }
                        },
                        "system": "https://fhir.nhs.uk/Id/nhs-number",
                        "type": {
                            "coding": [
                                {
                                    "code": "NH",
                                    "system": "http://terminology.hl7.org/CodeSystem/v2-0203"
                                }
                            ]
                        },
                        "value": "9737383257"
                    },
                    "reference": "urn:uuid:1a9d2eda-8aa0-4ca1-bc15-385b1d8ed0dd"
                }
            }
        }
    ],
    "identifier": {
        "value": "5051095-201905141025"
    },
    "timestamp": "2019-05-14T10:25:27+00:00",
    "type": "message"
}