{
    "resourceType": "Bundle",
    "entry": [
        {
            "fullUrl": "urn:uuid:473ce695-e423-4ad2-a2e9-7077bd8d1efc",
            "resource": {
                "resourceType": "MessageHeader",
                "destination": [
                    {
                        "endpoint": "https//fhir.mft.nhs.uk/Endpoint/EPIC",
                        "receiver": {
                            "identifier": {
                                "system": "https://fhir.nhs.uk/Id/ods-organization-code",
                                "value": "699X0"
                            }
                        }
                    }
                ],
                "eventCoding": {
                    "code": "T02",
                    "system": "http://terminology.hl7.org/CodeSystem/v2-0003"
                },
                "focus": [
                    {
                        "reference": "urn:uuid:91b20f5c-ef59-4b9b-9847-98d2e4be0136"
                    }
                ],
                "sender": {
                    "identifier": {
                        "system": "https://fhir.nhs.uk/Id/ods-organization-code",
                        "value": "699X0"
                    }
                },
                "source": {
                    "endpoint": "https://fhir.nwgenomics.nhs.uk/Endpoint/IGENE",
                    "software": "NW GLH"
                }
            }
        },
        {
            "fullUrl": "urn:uuid:d207e432-a48a-489b-bbf5-d8957b557c15",
            "resource": {
                "resourceType": "Patient",
                "address": [
                    {
                        "postalCode": "LA1 1PJ"
                    }
                ],
                "birthDate": "1970-07-27",
                "gender": "male",
                "identifier": [
                    {
                        "system": "https://fhir.nhs.uk/Id/nhs-number",
                        "type": {
                            "coding": [
                                {
                                    "code": "NH",
                                    "system": "http://terminology.hl7.org/CodeSystem/v2-0203"
                                }
                            ]
                        },
                        "value": "9737383214"
                    }
                ],
                "name": [
                    {
                        "family": "LANCASTER",
                        "given": [
                            "Jaime"
                        ]
                    }
                ]
            }
        },
        {
            "fullUrl": "urn:uuid:dda250ba-3088-4eed-883b-44aeac51c190",
            "resource": {
                "resourceType": "Observation",
                "category": [
                    {
                        "coding": [
                            {
                                "code": "laboratory",
                                "system": "http://terminology.hl7.org/CodeSystem/observation-category"
                            }
                        ]
                    },
                    {
                        "coding": [
                            {
                                "code": "GE",
                                "system": "http://terminology.hl7.org/CodeSystem/v2-0074"
                            }
                        ]
                    }
                ],
                "code": {
                    "coding": [
                        {
                            "code": "81306-3",
                            "display": "Variables that apply to the overall study",
                            "system": "http://loinc.org"
                        }
                    ]
                },
                "component": [
                    {
                        "code": {
                            "coding": [
                                {
                                    "code": "53577-3",
                                    "display": "Reason for study",
                                    "system": "http://loinc.org"
                                }
                            ]
                        }
                    },
                    {
                        "code": {
                            "coding": [
                                {
                                    "code": "51967-8",
                                    "display": "Genetic disease(s) assessed",
                                    "system": "http://loinc.org"
                                }
                            ]
                        },
                        "valueCodeableConcept": {
                            "coding": [
                                {
                                    "code": "C0010674",
                                    "display": "Cystic fibrosis",
                                    "system": "MedGen-Dis"
                                }
                            ]
                        }
                    },
                    {
                        "code": {
                            "coding": [
                                {
                                    "code": "51958-7",
                                    "display": "Transcript reference sequence [Identifier]",
                                    "system": "http://loinc.org"
                                }
                            ]
                        },
                        "valueCodeableConcept": {
                            "coding": [
                                {
                                    "code": "NM_000492.3",
                                    "display": "NM_000492.3",
                                    "system": "http://www.ncbi.nlm.nih.gov/refseq"
                                }
                            ]
                        }
                    },
                    {
                        "code": {
                            "coding": [
                                {
                                    "code": "48018-6",
                                    "display": "Gene studied",
                                    "system": "http://loinc.org"
                                }
                            ]
                        },
                        "valueCodeableConcept": {
                            "coding": [
                                {
                                    "code": "1884",
                                    "display": "CFTR",
                                    "system": "http://www.genenames.org"
                                }
                            ]
                        }
                    },
                    {
                        "code": {
                            "coding": [
                                {
                                    "code": "36908-2",
                                    "display": "Gene mutations tested",
                                    "system": "http://loinc.org"
                                }
                            ]
                        },
                        "valueCodeableConcept": {
                            "coding": [
                                {
                                    "code": "7105",
                                    "display": "NM_000492.3(CFTR):c.1521_1523delCTT (p.Phe508delPhe)",
                                    "system": "http://www.ncbi.nlm.nih.gov/clinvar"
                                }
                            ]
                        }
                    },
                    {
                        "code": {
                            "coding": [
                                {
                                    "code": "36908-2",
                                    "display": "Gene mutations tested",
                                    "system": "http://loinc.org"
                                }
                            ]
                        },
                        "valueCodeableConcept": {
                            "coding": [
                                {
                                    "code": "7106",
                                    "display": "NM_000492.3(CFTR):c.1519_1521delATC(p.Ile507del)",
                                    "system": "http://www.ncbi.nlm.nih.gov/clinvar"
                                }
                            ]
                        }
                    },
                    {
                        "code": {
                            "coding": [
                                {
                                    "code": "36908-2",
                                    "display": "Gene mutations tested",
                                    "system": "http://loinc.org"
                                }
                            ]
                        },
                        "valueCodeableConcept": {
                            "coding": [
                                {
                                    "code": "7129",
                                    "display": "NM_000492.3(CFTR):c.3846G>A (p.Trp1282Ter)",
                                    "system": "http://www.ncbi.nlm.nih.gov/clinvar"
                                }
                            ]
                        }
                    },
                    {
                        "code": {
                            "coding": [
                                {
                                    "code": "36908-2",
                                    "display": "Gene mutations tested",
                                    "system": "http://loinc.org"
                                }
                            ]
                        },
                        "valueCodeableConcept": {
                            "coding": [
                                {
                                    "code": "38799",
                                    "display": "NM_000492.3(CFTR):c.489+1G>T",
                                    "system": "http://www.ncbi.nlm.nih.gov/clinvar"
                                }
                            ]
                        }
                    },
                    {
                        "code": {
                            "coding": [
                                {
                                    "code": "36908-2",
                                    "display": "Gene mutations tested",
                                    "system": "http://loinc.org"
                                }
                            ]
                        },
                        "valueCodeableConcept": {
                            "coding": [
                                {
                                    "code": "Gly542Ter",
                                    "display": "Gly542Ter",
                                    "system": "http://varnomen.hgvs.org"
                                }
                            ]
                        }
                    },
                    {
                        "code": {
                            "coding": [
                                {
                                    "code": "36908-2",
                                    "display": "Gene mutations tested",
                                    "system": "http://loinc.org"
                                }
                            ]
                        },
                        "valueCodeableConcept": {
                            "coding": [
                                {
                                    "code": "Arg117His",
                                    "display": "Arg117His",
                                    "system": "http://varnomen.hgvs.org"
                                }
                            ]
                        }
                    },
                    {
                        "code": {
                            "coding": [
                                {
                                    "code": "36908-2",
                                    "display": "Gene mutations tested",
                                    "system": "http://loinc.org"
                                }
                            ]
                        },
                        "valueCodeableConcept": {
                            "coding": [
                                {
                                    "code": "711+1G>T",
                                    "display": "711+1G>T",
                                    "system": "http://varnomen.hgvs.org"
                                }
                            ]
                        }
                    },
                    {
                        "code": {
                            "coding": [
                                {
                                    "code": "36908-2",
                                    "display": "Gene mutations tested",
                                    "system": "http://loinc.org"
                                }
                            ]
                        },
                        "valueCodeableConcept": {
                            "coding": [
                                {
                                    "code": "Asn1303Lys(C>A)",
                                    "display": "Asn1303Lys(C>A)",
                                    "system": "http://varnomen.hgvs.org"
                                }
                            ]
                        }
                    },
                    {
                        "code": {
                            "coding": [
                                {
                                    "code": "36908-2",
                                    "display": "Gene mutations tested",
                                    "system": "http://loinc.org"
                                }
                            ]
                        },
                        "valueCodeableConcept": {
                            "coding": [
                                {
                                    "code": "Arg334Trp",
                                    "display": "Arg334Trp",
                                    "system": "http://varnomen.hgvs.org"
                                }
                            ]
                        }
                    },
                    {
                        "code": {
                            "coding": [
                                {
                                    "code": "36908-2",
                                    "display": "Gene mutations tested",
                                    "system": "http://loinc.org"
                                }
                            ]
                        },
                        "valueCodeableConcept": {
                            "coding": [
                                {
                                    "code": "Arg347Pro",
                                    "display": "Arg347Pro",
                                    "system": "http://varnomen.hgvs.org"
                                }
                            ]
                        }
                    },
                    {
                        "code": {
                            "coding": [
                                {
                                    "code": "36908-2",
                                    "display": "Gene mutations tested",
                                    "system": "http://loinc.org"
                                }
                            ]
                        },
                        "valueCodeableConcept": {
                            "coding": [
                                {}
                            ]
                        }
                    },
                    {
                        "code": {
                            "coding": [
                                {
                                    "code": "51968-6",
                                    "display": "Discrete variation analysis overall interpretation",
                                    "system": "http://loinc.org"
                                }
                            ]
                        },
                        "valueCodeableConcept": {
                            "coding": [
                                {
                                    "code": "LA6576-8",
                                    "display": "Positive",
                                    "system": "http://loinc.org"
                                }
                            ]
                        }
                    },
                    {
                        "code": {
                            "coding": [
                                {
                                    "code": "62374-4",
                                    "display": "Human reference sequence assembly",
                                    "system": "http://loinc.org"
                                }
                            ]
                        },
                        "valueCodeableConcept": {
                            "coding": [
                                {
                                    "code": "LA14029-5",
                                    "display": "GRCh37",
                                    "system": "http://loinc.org"
                                }
                            ]
                        }
                    },
                    {
                        "code": {
                            "coding": [
                                {
                                    "code": "82115-7",
                                    "display": "dbSNP version",
                                    "system": "http://loinc.org"
                                }
                            ]
                        },
                        "valueQuantity": {
                            "system": "http://unitsofmeasure.org",
                            "unit": "Attributes of Discrete Genetic Variants: Report Section 2",
                            "value": 147
                        }
                    }
                ],
                "effectiveDateTime": "2016-08-09T16:50:00+00:00",
                "identifier": [
                    {
                        "assigner": {
                            "identifier": {
                                "system": "https://fhir.nhs.uk/Id/ods-organization-code",
                                "value": "699X0"
                            }
                        },
                        "system": "https://fhir.nwgenomics.nhs.uk/iGene/ReportIdentifier",
                        "type": {
                            "coding": [
                                {
                                    "code": "FILL",
                                    "system": "http://terminology.hl7.org/CodeSystem/v2-0203"
                                }
                            ]
                        },
                        "value": "Gen825750"
                    }
                ],
                "meta": {
                    "profile": [
                        "https://fhir.nwgenomics.nhs.uk/StructureDefinition/GenomicStudyPanel"
                    ]
                },
                "performer": [
                    {
                        "identifier": {
                            "system": "https://fhir.nhs.uk/Id/ods-organization-code",
                            "value": "699X0"
                        },
                        "type": "Organization"
                    }
                ],
                "status": "final",
                "subject": {
                    "identifier": {
                        "system": "https://fhir.nhs.uk/Id/nhs-number",
                        "type": {
                            "coding": [
                                {
                                    "code": "NH",
                                    "system": "http://terminology.hl7.org/CodeSystem/v2-0203"
                                }
                            ]
                        },
                        "value": "9737383214"
                    },
                    "reference": "urn:uuid:d207e432-a48a-489b-bbf5-d8957b557c15"
                },
                "valueString": "Patient may be carrier for cystic fibrosis"
            }
        },
        {
            "fullUrl": "urn:uuid:1b7e8e38-58c3-420b-9cb5-47d7c10ab5c6",
            "resource": {
                "resourceType": "Binary",
                "contentType": "application/pdf",
                "data": ""
            }
        },
        {
            "fullUrl": "urn:uuid:9b51b2b4-f368-43d7-9e9a-1842bb856b71",
            "resource": {
                "resourceType": "DocumentReference",
                "content": [
                    {
                        "attachment": {
                            "contentType": "application/pdf",
                            "url": "urn:uuid:1b7e8e38-58c3-420b-9cb5-47d7c10ab5c6"
                        }
                    }
                ],
                "context": {
                    "period": {
                        "end": "2016-08-09T16:50:00+00:00",
                        "start": "2016-08-09T16:50:00+00:00"
                    },
                    "related": [
                        {
                            "identifier": {
                                "assigner": {
                                    "identifier": {
                                        "system": "https://fhir.nhs.uk/Id/ods-organization-code",
                                        "value": "RBS"
                                    }
                                },
                                "type": {
                                    "coding": [
                                        {
                                            "code": "PLAC",
                                            "system": "http://terminology.hl7.org/CodeSystem/v2-0203"
                                        }
                                    ]
                                },
                                "value": "LRI-1000152867"
                            },
                            "reference": "urn:uuid:bd8643bd-62e8-446c-8c2b-b715279e2e40",
                            "type": "ServiceRequest"
                        },
                        {
                            "identifier": {
                                "assigner": {
                                    "identifier": {
                                        "system": "https://fhir.nhs.uk/Id/ods-organization-code",
                                        "value": "699X0"
                                    }
                                },
                                "system": "https://fhir.nwgenomics.nhs.uk/iGene/ReportIdentifier",
                                "type": {
                                    "coding": [
                                        {
                                            "code": "FILL",
                                            "system": "http://terminology.hl7.org/CodeSystem/v2-0203"
                                        }
                                    ]
                                },
                                "value": "Gen825750"
                            },
                            "reference": "urn:uuid:91b20f5c-ef59-4b9b-9847-98d2e4be0136",
                            "type": "DiagnosticReport"
                        }
                    ]
                },
                "custodian": {
                    "identifier": {
                        "system": "https://fhir.nhs.uk/Id/ods-organization-code",
                        "value": "699X0"
                    },
                    "type": "Organization"
                },
                "date": "2016-08-09T16:50:00+00:00",
                "identifier": [
                    {
                        "assigner": {
                            "identifier": {
                                "system": "https://fhir.nhs.uk/Id/ods-organization-code",
                                "value": "699X0"
                            }
                        },
                        "system": "https://fhir.nwgenomics.nhs.uk/iGene/ReportIdentifier",
                        "type": {
                            "coding": [
                                {
                                    "code": "FILL",
                                    "system": "http://terminology.hl7.org/CodeSystem/v2-0203"
                                }
                            ]
                        },
                        "value": "Gen825750"
                    }
                ],
                "status": "current",
                "subject": {
                    "identifier": {
                        "system": "https://fhir.nhs.uk/Id/nhs-number",
                        "type": {
                            "coding": [
                                {
                                    "code": "NH",
                                    "system": "http://terminology.hl7.org/CodeSystem/v2-0203"
                                }
                            ]
                        },
                        "value": "9737383214"
                    },
                    "reference": "urn:uuid:d207e432-a48a-489b-bbf5-d8957b557c15"
                },
                "type": {
                    "coding": [
                        {
                            "code": "1054161000000101",
                            "display": "Genetic report",
                            "system": "http://snomed.info/sct"
                        }
                    ]
                }
            }
        },
        {
            "fullUrl": "urn:uuid:b2c90049-9566-4778-94a6-6cfe0dce1c40",
            "resource": {
                "resourceType": "Observation",
                "category": [
                    {
                        "coding": [
                            {
                                "code": "laboratory",
                                "system": "http://terminology.hl7.org/CodeSystem/observation-category"
                            }
                        ]
                    },
                    {
                        "coding": [
                            {
                                "code": "GE",
                                "system": "http://terminology.hl7.org/CodeSystem/v2-0074"
                            }
                        ]
                    },
                    {
                        "coding": [
                            {
                                "code": "LA26801-3",
                                "display": "Simple Variant",
                                "system": "http://loinc.org"
                            }
                        ]
                    }
                ],
                "code": {
                    "coding": [
                        {
                            "code": "69548-6",
                            "display": "Genetic variant assessment",
                            "system": "http://loinc.org"
                        }
                    ]
                },
                "component": [
                    {
                        "code": {
                            "coding": [
                                {
                                    "code": "81252-9",
                                    "display": "Discrete genetic variant",
                                    "system": "http://loinc.org"
                                }
                            ]
                        },
                        "valueCodeableConcept": {
                            "coding": [
                                {
                                    "code": "7105",
                                    "display": "NM_000492.3(CFTR):c.1521_1523delCTT (p.Phe508delPhe)",
                                    "system": "http://www.ncbi.nlm.nih.gov/clinvar"
                                }
                            ]
                        }
                    },
                    {
                        "code": {
                            "coding": [
                                {
                                    "code": "48018-6",
                                    "display": "Gene studied",
                                    "system": "http://loinc.org"
                                }
                            ]
                        },
                        "valueCodeableConcept": {
                            "coding": [
                                {
                                    "code": "1884",
                                    "display": "CFTR",
                                    "system": "http://www.genenames.org"
                                }
                            ]
                        }
                    },
                    {
                        "code": {
                            "coding": [
                                {
                                    "code": "51958-7",
                                    "display": "Transcript RefSeq ID",
                                    "system": "http://loinc.org"
                                }
                            ]
                        },
                        "valueCodeableConcept": {
                            "coding": [
                                {
                                    "code": "NM_000492.3",
                                    "display": "NM_000492.3",
                                    "system": "http://www.ncbi.nlm.nih.gov/refseq"
                                }
                            ]
                        }
                    },
                    {
                        "code": {
                            "coding": [
                                {
                                    "code": "41103-3",
                                    "display": "Transcript DNA Change (cHGVS)",
                                    "system": "http://loinc.org"
                                }
                            ]
                        },
                        "valueCodeableConcept": {
                            "coding": [
                                {
                                    "code": "c.1521_1523delCTT",
                                    "display": "c.1521_1523delCTT",
                                    "system": "http://varnomen.hgvs.org"
                                }
                            ]
                        }
                    },
                    {
                        "code": {
                            "coding": [
                                {
                                    "code": "48005-3",
                                    "display": "Amino acid change p.HGVS",
                                    "system": "http://loinc.org"
                                }
                            ]
                        },
                        "valueCodeableConcept": {
                            "coding": [
                                {
                                    "code": "p.Phe508delPhe",
                                    "display": "p.Phe508delPhe",
                                    "system": "http://varnomen.hgvs.org"
                                }
                            ]
                        }
                    },
                    {
                        "code": {
                            "coding": [
                                {
                                    "code": "48019-4",
                                    "display": "DNA change type",
                                    "system": "http://loinc.org"
                                }
                            ]
                        },
                        "valueCodeableConcept": {
                            "coding": [
                                {
                                    "code": "LA6692-3l",
                                    "display": "deletion",
                                    "system": "http://loinc.org"
                                }
                            ]
                        }
                    },
                    {
                        "code": {
                            "coding": [
                                {
                                    "code": "48013-7",
                                    "display": "Genomic reference sequence ID",
                                    "system": "http://loinc.org"
                                }
                            ]
                        },
                        "valueCodeableConcept": {
                            "coding": [
                                {
                                    "code": "NG_016465.4:g.98809_98811delCTT",
                                    "display": "NG_016465.4:g.98809_98811delCTT",
                                    "system": "http://www.ncbi.nlm.nih.gov/refseq"
                                }
                            ]
                        }
                    },
                    {
                        "code": {
                            "coding": [
                                {
                                    "code": "81290-9",
                                    "display": "Genomic DNA change(gHGVS)",
                                    "system": "http://loinc.org"
                                }
                            ]
                        },
                        "valueCodeableConcept": {
                            "coding": [
                                {
                                    "code": "NC_000007.13",
                                    "display": "NC_000007.13",
                                    "system": "http://varnomen.hgvs.org"
                                }
                            ]
                        }
                    },
                    {
                        "code": {
                            "coding": [
                                {
                                    "code": "69547-8",
                                    "display": "Genomic ref allele",
                                    "system": "http://loinc.org"
                                }
                            ]
                        },
                        "valueString": "CTT"
                    },
                    {
                        "code": {
                            "coding": [
                                {
                                    "code": "81254-5",
                                    "display": "Genomic allele start-end",
                                    "system": "http://loinc.org"
                                }
                            ]
                        },
                        "valueRange": {
                            "high": {
                                "system": "http://unitsofmeasure.org",
                                "value": 117199648
                            },
                            "low": {
                                "system": "http://unitsofmeasure.org",
                                "value": 117199646
                            }
                        }
                    },
                    {
                        "code": {
                            "coding": [
                                {
                                    "code": "69551-0",
                                    "display": "Genomic alt allele",
                                    "system": "http://loinc.org"
                                }
                            ]
                        },
                        "valueString": "-"
                    },
                    {
                        "code": {
                            "coding": [
                                {
                                    "code": "81255-2",
                                    "display": "dbSNP ID",
                                    "system": "http://loinc.org"
                                }
                            ]
                        },
                        "valueCodeableConcept": {
                            "coding": [
                                {
                                    "code": "rs113993960",
                                    "display": "rs113993960",
                                    "system": "http://www.ncbi.nlm.nih.gov/projects/SNP"
                                }
                            ]
                        }
                    },
                    {
                        "code": {
                            "coding": [
                                {
                                    "code": "48001-2",
                                    "display": "Cytogenetic (chromosome) location",
                                    "system": "http://loinc.org"
                                }
                            ]
                        },
                        "valueCodeableConcept": {
                            "coding": [
                                {
                                    "code": "7q31.2",
                                    "display": "7q31.2",
                                    "system": "Chrom-Loc"
                                }
                            ]
                        }
                    },
                    {
                        "code": {
                            "coding": [
                                {
                                    "code": "48002-0",
                                    "display": "Genomic source class",
                                    "system": "http://loinc.org"
                                }
                            ]
                        },
                        "valueCodeableConcept": {
                            "coding": [
                                {
                                    "code": "LA6683-2",
                                    "display": "Germline",
                                    "system": "http://loinc.org"
                                }
                            ]
                        }
                    },
                    {
                        "code": {
                            "coding": [
                                {
                                    "code": "53037-8",
                                    "display": "Genetic variation Clinical significance",
                                    "system": "http://loinc.org"
                                }
                            ]
                        },
                        "valueCodeableConcept": {
                            "coding": [
                                {
                                    "code": "LA6668-3",
                                    "display": "Pathogenic",
                                    "system": "http://loinc.org"
                                }
                            ]
                        }
                    },
                    {
                        "code": {
                            "coding": [
                                {
                                    "code": "69548-6",
                                    "display": "Genomic variant assessment",
                                    "system": "http://loinc.org"
                                }
                            ]
                        },
                        "valueCodeableConcept": {
                            "coding": [
                                {
                                    "code": "LA9633-4",
                                    "display": "Present",
                                    "system": "http://loinc.org"
                                }
                            ]
                        }
                    },
                    {
                        "code": {
                            "coding": [
                                {
                                    "code": "53034-5",
                                    "display": "Allelic state",
                                    "system": "http://loinc.org"
                                }
                            ]
                        },
                        "valueCodeableConcept": {
                            "coding": [
                                {
                                    "code": "LA6706-1",
                                    "display": "Heterozygous",
                                    "system": "http://loinc.org"
                                }
                            ]
                        }
                    }
                ],
                "effectiveDateTime": "2016-08-09T16:50:00+00:00",
                "identifier": [
                    {
                        "assigner": {
                            "identifier": {
                                "system": "https://fhir.nhs.uk/Id/ods-organization-code",
                                "value": "699X0"
                            }
                        },
                        "system": "https://fhir.nwgenomics.nhs.uk/iGene/ReportIdentifier",
                        "type": {
                            "coding": [
                                {
                                    "code": "FILL",
                                    "system": "http://terminology.hl7.org/CodeSystem/v2-0203"
                                }
                            ]
                        },
                        "value": "Gen825750"
                    }
                ],
                "meta": {
                    "profile": [
                        "https://fhir.nwgenomics.nhs.uk/StructureDefinition/Variant"
                    ]
                },
                "method": {
                    "coding": [
                        {
                            "code": "LA26400-4",
                            "display": "SNP array",
                            "system": "http://loinc.org"
                        }
                    ]
                },
                "performer": [
                    {
                        "identifier": {
                            "system": "https://fhir.nhs.uk/Id/ods-organization-code",
                            "value": "699X0"
                        },
                        "type": "Organization"
                    }
                ],
                "status": "final",
                "subject": {
                    "identifier": {
                        "system": "https://fhir.nhs.uk/Id/nhs-number",
                        "type": {
                            "coding": [
                                {
                                    "code": "NH",
                                    "system": "http://terminology.hl7.org/CodeSystem/v2-0203"
                                }
                            ]
                        },
                        "value": "9737383214"
                    },
                    "reference": "urn:uuid:d207e432-a48a-489b-bbf5-d8957b557c15"
                }
            }
        },
        {
            "fullUrl": "urn:uuid:fc4156f3-31a4-4ba8-9df1-a9db7dd3a6ba",
            "resource": {
                "resourceType": "Observation",
                "category": [
                    {
                        "coding": [
                            {
                                "code": "laboratory",
                                "system": "http://terminology.hl7.org/CodeSystem/observation-category"
                            }
                        ]
                    },
                    {
                        "coding": [
                            {
                                "code": "GE",
                                "system": "http://terminology.hl7.org/CodeSystem/v2-0074"
                            }
                        ]
                    }
                ],
                "code": {
                    "coding": [
                        {
                            "code": "412731001",
                            "display": "Genetic finding detected",
                            "system": "http://snomed.info/sct"
                        },
                        {
                            "code": "diagnostic-implication",
                            "system": "http://hl7.org/fhir/uv/genomics-reporting/CodeSystem/tbd-codes-cs"
                        },
                        {
                            "code": "R185",
                            "display": "Cystic fibrosis",
                            "system": "https://fhir.nwgenomics.nhs.uk/CodeSystem/GenomicClinicalIndication"
                        }
                    ]
                },
                "component": [
                    {
                        "code": {
                            "coding": [
                                {
                                    "code": "81259-4",
                                    "display": "Probable associated phenotype",
                                    "system": "http://loinc.org"
                                }
                            ]
                        },
                        "valueCodeableConcept": {
                            "coding": [
                                {
                                    "code": "R185",
                                    "display": "Cystic fibrosis",
                                    "system": "https://fhir.nwgenomics.nhs.uk/CodeSystem/GenomicClinicalIndication"
                                }
                            ]
                        }
                    }
                ],
                "derivedFrom": [
                    {
                        "reference": "urn:uuid:b2c90049-9566-4778-94a6-6cfe0dce1c40",
                        "type": "Observation"
                    }
                ],
                "effectiveDateTime": "2016-08-09T16:50:00+00:00",
                "identifier": [
                    {
                        "assigner": {
                            "identifier": {
                                "system": "https://fhir.nhs.uk/Id/ods-organization-code",
                                "value": "699X0"
                            }
                        },
                        "system": "https://fhir.nwgenomics.nhs.uk/iGene/ReportIdentifier",
                        "type": {
                            "coding": [
                                {
                                    "code": "FILL",
                                    "system": "http://terminology.hl7.org/CodeSystem/v2-0203"
                                }
                            ]
                        },
                        "value": "Gen825750"
                    }
                ],
                "meta": {
                    "profile": [
                        "https://fhir.nwgenomics.nhs.uk/StructureDefinition/DiagnosticImplication"
                    ]
                },
                "performer": [
                    {
                        "identifier": {
                            "system": "https://fhir.nhs.uk/Id/ods-organization-code",
                            "value": "699X0"
                        },
                        "type": "Organization"
                    }
                ],
                "status": "final",
                "subject": {
                    "identifier": {
                        "system": "https://fhir.nhs.uk/Id/nhs-number",
                        "type": {
                            "coding": [
                                {
                                    "code": "NH",
                                    "system": "http://terminology.hl7.org/CodeSystem/v2-0203"
                                }
                            ]
                        },
                        "value": "9737383214"
                    },
                    "reference": "urn:uuid:d207e432-a48a-489b-bbf5-d8957b557c15"
                }
            }
        },
        {
            "fullUrl": "urn:uuid:bd8643bd-62e8-446c-8c2b-b715279e2e40",
            "resource": {
                "resourceType": "ServiceRequest",
                "authoredOn": "2016-08-03",
                "category": [
                    {
                        "coding": [
                            {
                                "code": "116148004",
                                "system": "http://snomed.info/sct"
                            }
                        ]
                    }
                ],
                "code": {
                    "coding": [
                        {
                            "code": "R185.1",
                            "display": "Cystic fibrosis carrier testing",
                            "system": "https://fhir.nhs.uk/CodeSystem/England-GenomicTestDirectory"
                        }
                    ]
                },
                "identifier": [
                    {
                        "assigner": {
                            "identifier": {
                                "system": "https://fhir.nhs.uk/Id/ods-organization-code",
                                "value": "RBS"
                            }
                        },
                        "type": {
                            "coding": [
                                {
                                    "code": "PLAC",
                                    "system": "http://terminology.hl7.org/CodeSystem/v2-0203"
                                }
                            ]
                        },
                        "value": "LRI-1000152867"
                    }
                ],
                "intent": "order",
                "requester": {
                    "display": "Alder Hey",
                    "identifier": {
                        "system": "https://fhir.nhs.uk/Id/ods-organization-code",
                        "value": "RBS"
                    },
                    "type": "Organization"
                },
                "status": "active",
                "subject": {
                    "identifier": {
                        "system": "https://fhir.nhs.uk/Id/nhs-number",
                        "type": {
                            "coding": [
                                {
                                    "code": "NH",
                                    "system": "http://terminology.hl7.org/CodeSystem/v2-0203"
                                }
                            ]
                        },
                        "value": "9737383214"
                    },
                    "reference": "urn:uuid:d207e432-a48a-489b-bbf5-d8957b557c15"
                }
            }
        },
        {
            "fullUrl": "urn:uuid:91b20f5c-ef59-4b9b-9847-98d2e4be0136",
            "resource": {
                "resourceType": "DiagnosticReport",
                "basedOn": [
                    {
                        "identifier": {
                            "assigner": {
                                "identifier": {
                                    "system": "https://fhir.nhs.uk/Id/ods-organization-code",
                                    "value": "RBS"
                                }
                            },
                            "type": {
                                "coding": [
                                    {
                                        "code": "PLAC",
                                        "system": "http://terminology.hl7.org/CodeSystem/v2-0203"
                                    }
                                ]
                            },
                            "value": "LRI-1000152867"
                        },
                        "reference": "urn:uuid:bd8643bd-62e8-446c-8c2b-b715279e2e40",
                        "type": "ServiceRequest"
                    }
                ],
                "category": [
                    {
                        "coding": [
                            {
                                "code": "GE",
                                "system": "http://terminology.hl7.org/CodeSystem/v2-0074"
                            }
                        ]
                    }
                ],
                "code": {
                    "coding": [
                        {
                            "code": "R185.1",
                            "display": "Cystic fibrosis carrier testing",
                            "system": "https://fhir.nhs.uk/CodeSystem/England-GenomicTestDirectory"
                        }
                    ]
                },
                "effectiveDateTime": "2016-08-09T16:50:00+00:00",
                "identifier": [
                    {
                        "assigner": {
                            "identifier": {
                                "system": "https://fhir.nhs.uk/Id/ods-organization-code",
                                "value": "699X0"
                            }
                        },
                        "system": "https://fhir.nwgenomics.nhs.uk/iGene/ReportIdentifier",
                        "type": {
                            "coding": [
                                {
                                    "code": "FILL",
                                    "system": "http://terminology.hl7.org/CodeSystem/v2-0203"
                                }
                            ]
                        },
                        "value": "Gen825750"
                    }
                ],
                "performer": [
                    {
                        "display": "NHS North West Genomics",
                        "identifier": {
                            "system": "https://fhir.nhs.uk/Id/ods-organization-code",
                            "value": "699X0"
                        },
                        "type": "Organization"
                    }
                ],
                "presentedForm": [
                    {
                        "contentType": "application/pdf",
                        "url": "urn:uuid:1b7e8e38-58c3-420b-9cb5-47d7c10ab5c6"
                    }
                ],
                "result": [
                    {
                        "display": "Variables that apply to the overall study",
                        "reference": "urn:uuid:dda250ba-3088-4eed-883b-44aeac51c190",
                        "type": "Observation"
                    },
                    {
                        "display": "Genetic variant assessment",
                        "reference": "urn:uuid:b2c90049-9566-4778-94a6-6cfe0dce1c40",
                        "type": "Observation"
                    },
                    {
                        "display": "Genetic finding detected",
                        "reference": "urn:uuid:fc4156f3-31a4-4ba8-9df1-a9db7dd3a6ba",
                        "type": "Observation"
                    }
                ],
                "status": "unknown",
                "subject": {
                    "identifier": {
                        "system": "https://fhir.nhs.uk/Id/nhs-number",
                        "type": {
                            "coding": [
                                {
                                    "code": "NH",
                                    "system": "http://terminology.hl7.org/CodeSystem/v2-0203"
                                }
                            ]
                        },
                        "value": "9737383214"
                    },
                    "reference": "urn:uuid:d207e432-a48a-489b-bbf5-d8957b557c15"
                }
            }
        }
    ],
    "identifier": {
        "value": "ORIE-251014-9"
    },
    "timestamp": "2025-10-14T15:59:42+00:00",
    "type": "message"
}