{
    "resourceType": "Bundle",
    "entry": [
        {
            "fullUrl": "urn:uuid:864c63fa-cd93-4410-90ca-2a70d3b0a413",
            "resource": {
                "resourceType": "MessageHeader",
                "destination": [
                    {
                        "endpoint": "https//fhir.mft.nhs.uk/Endpoint/EPIC",
                        "receiver": {
                            "identifier": {
                                "system": "https://fhir.nhs.uk/Id/ods-organization-code",
                                "value": "699X0"
                            }
                        }
                    }
                ],
                "eventCoding": {
                    "code": "T02",
                    "system": "http://terminology.hl7.org/CodeSystem/v2-0003"
                },
                "focus": [
                    {
                        "reference": "urn:uuid:e6abaa02-e6f5-460b-a486-4cccec7905f6"
                    }
                ],
                "sender": {
                    "identifier": {
                        "system": "https://fhir.nhs.uk/Id/ods-organization-code",
                        "value": "699X0"
                    }
                },
                "source": {
                    "endpoint": "https://fhir.nwgenomics.nhs.uk/Endpoint/IGENE",
                    "software": "NW GLH"
                }
            }
        },
        {
            "fullUrl": "urn:uuid:715a5ee9-7db2-452f-8412-8e107197b07e",
            "resource": {
                "resourceType": "Patient",
                "address": [
                    {
                        "postalCode": "CW12 1BN"
                    }
                ],
                "birthDate": "1982--0-2-",
                "gender": "female",
                "identifier": [
                    {
                        "system": "https://fhir.nhs.uk/Id/nhs-number",
                        "type": {
                            "coding": [
                                {
                                    "code": "NH",
                                    "system": "http://terminology.hl7.org/CodeSystem/v2-0203"
                                }
                            ]
                        },
                        "value": "9737383281"
                    },
                    {
                        "assigner": {
                            "identifier": {
                                "system": "https://fhir.nhs.uk/Id/ods-organization-code",
                                "value": "R0A"
                            }
                        },
                        "system": "urn:oid:1.2.840.114350.1.13.611.3.7.5.737384.14",
                        "type": {
                            "coding": [
                                {
                                    "code": "MR",
                                    "system": "http://terminology.hl7.org/CodeSystem/v2-0203"
                                }
                            ]
                        },
                        "value": "ABC14567"
                    }
                ],
                "name": [
                    {
                        "family": "CONGLETON",
                        "given": [
                            "Margaery"
                        ]
                    }
                ]
            }
        },
        {
            "fullUrl": "urn:uuid:9e6463b5-0718-4b94-b181-9bb9818488f4",
            "resource": {
                "resourceType": "Observation",
                "code": {
                    "coding": [
                        {
                            "code": "53577-3",
                            "display": "Reason for study",
                            "system": "http://loinc.org"
                        }
                    ]
                },
                "identifier": [
                    {
                        "assigner": {
                            "identifier": {
                                "system": "https://fhir.nhs.uk/Id/ods-organization-code",
                                "value": "699X0"
                            }
                        },
                        "system": "https://fhir.nwgenomics.nhs.uk/iGene/ReportIdentifier",
                        "type": {
                            "coding": [
                                {
                                    "code": "FILL",
                                    "system": "http://terminology.hl7.org/CodeSystem/v2-0203"
                                }
                            ]
                        },
                        "value": "Gen825750"
                    }
                ],
                "performer": [
                    {
                        "identifier": {
                            "system": "https://fhir.nhs.uk/Id/ods-organization-code",
                            "value": "699X0"
                        },
                        "type": "Organization"
                    }
                ],
                "status": "final",
                "subject": {
                    "identifier": {
                        "system": "https://fhir.nhs.uk/Id/nhs-number",
                        "type": {
                            "coding": [
                                {
                                    "code": "NH",
                                    "system": "http://terminology.hl7.org/CodeSystem/v2-0203"
                                }
                            ]
                        },
                        "value": "9737383281"
                    },
                    "reference": "urn:uuid:715a5ee9-7db2-452f-8412-8e107197b07e"
                },
                "valueString": "Patient may be carrier for classic galactosemia."
            }
        },
        {
            "fullUrl": "urn:uuid:5605c6a1-6528-4a28-a5d3-23ecc13b9be8",
            "resource": {
                "resourceType": "Observation",
                "code": {
                    "coding": [
                        {
                            "code": "51967-8",
                            "display": "Genetic disease(s) assessed",
                            "system": "http://loinc.org"
                        }
                    ]
                },
                "identifier": [
                    {
                        "assigner": {
                            "identifier": {
                                "system": "https://fhir.nhs.uk/Id/ods-organization-code",
                                "value": "699X0"
                            }
                        },
                        "system": "https://fhir.nwgenomics.nhs.uk/iGene/ReportIdentifier",
                        "type": {
                            "coding": [
                                {
                                    "code": "FILL",
                                    "system": "http://terminology.hl7.org/CodeSystem/v2-0203"
                                }
                            ]
                        },
                        "value": "Gen825750"
                    }
                ],
                "performer": [
                    {
                        "identifier": {
                            "system": "https://fhir.nhs.uk/Id/ods-organization-code",
                            "value": "699X0"
                        },
                        "type": "Organization"
                    }
                ],
                "status": "final",
                "subject": {
                    "identifier": {
                        "system": "https://fhir.nhs.uk/Id/nhs-number",
                        "type": {
                            "coding": [
                                {
                                    "code": "NH",
                                    "system": "http://terminology.hl7.org/CodeSystem/v2-0203"
                                }
                            ]
                        },
                        "value": "9737383281"
                    },
                    "reference": "urn:uuid:715a5ee9-7db2-452f-8412-8e107197b07e"
                },
                "valueCodeableConcept": {
                    "coding": [
                        {
                            "code": "C0016952",
                            "display": "Galactosemia",
                            "system": "MedGen-Dis"
                        }
                    ]
                }
            }
        },
        {
            "fullUrl": "urn:uuid:77e27ee9-9b64-4bdf-9aa3-36867450aa1c",
            "resource": {
                "resourceType": "Observation",
                "code": {
                    "coding": [
                        {
                            "code": "51958-7",
                            "display": "Transcript reference sequence [Identifier]",
                            "system": "http://loinc.org"
                        }
                    ]
                },
                "identifier": [
                    {
                        "assigner": {
                            "identifier": {
                                "system": "https://fhir.nhs.uk/Id/ods-organization-code",
                                "value": "699X0"
                            }
                        },
                        "system": "https://fhir.nwgenomics.nhs.uk/iGene/ReportIdentifier",
                        "type": {
                            "coding": [
                                {
                                    "code": "FILL",
                                    "system": "http://terminology.hl7.org/CodeSystem/v2-0203"
                                }
                            ]
                        },
                        "value": "Gen825750"
                    }
                ],
                "performer": [
                    {
                        "identifier": {
                            "system": "https://fhir.nhs.uk/Id/ods-organization-code",
                            "value": "699X0"
                        },
                        "type": "Organization"
                    }
                ],
                "status": "final",
                "subject": {
                    "identifier": {
                        "system": "https://fhir.nhs.uk/Id/nhs-number",
                        "type": {
                            "coding": [
                                {
                                    "code": "NH",
                                    "system": "http://terminology.hl7.org/CodeSystem/v2-0203"
                                }
                            ]
                        },
                        "value": "9737383281"
                    },
                    "reference": "urn:uuid:715a5ee9-7db2-452f-8412-8e107197b07e"
                },
                "valueCodeableConcept": {
                    "coding": [
                        {
                            "code": "NM_000249",
                            "display": "NM_000249",
                            "system": "http://www.ncbi.nlm.nih.gov/refseq"
                        }
                    ]
                }
            }
        },
        {
            "fullUrl": "urn:uuid:05609988-0372-4cdb-9335-67941aab232a",
            "resource": {
                "resourceType": "Observation",
                "code": {
                    "coding": [
                        {
                            "code": "48018-6",
                            "display": "Gene studied [ID]",
                            "system": "http://loinc.org"
                        }
                    ]
                },
                "identifier": [
                    {
                        "assigner": {
                            "identifier": {
                                "system": "https://fhir.nhs.uk/Id/ods-organization-code",
                                "value": "699X0"
                            }
                        },
                        "system": "https://fhir.nwgenomics.nhs.uk/iGene/ReportIdentifier",
                        "type": {
                            "coding": [
                                {
                                    "code": "FILL",
                                    "system": "http://terminology.hl7.org/CodeSystem/v2-0203"
                                }
                            ]
                        },
                        "value": "Gen825750"
                    }
                ],
                "performer": [
                    {
                        "identifier": {
                            "system": "https://fhir.nhs.uk/Id/ods-organization-code",
                            "value": "699X0"
                        },
                        "type": "Organization"
                    }
                ],
                "status": "final",
                "subject": {
                    "identifier": {
                        "system": "https://fhir.nhs.uk/Id/nhs-number",
                        "type": {
                            "coding": [
                                {
                                    "code": "NH",
                                    "system": "http://terminology.hl7.org/CodeSystem/v2-0203"
                                }
                            ]
                        },
                        "value": "9737383281"
                    },
                    "reference": "urn:uuid:715a5ee9-7db2-452f-8412-8e107197b07e"
                },
                "valueCodeableConcept": {
                    "coding": [
                        {
                            "code": "4135",
                            "display": "GALT",
                            "system": "http://www.genenames.org"
                        }
                    ]
                }
            }
        },
        {
            "fullUrl": "urn:uuid:e34666fd-b48c-4992-8427-7521c116ab94",
            "resource": {
                "resourceType": "Observation",
                "code": {
                    "coding": [
                        {
                            "code": "36908-2",
                            "display": "Gene mutations tested",
                            "system": "http://loinc.org"
                        }
                    ]
                },
                "identifier": [
                    {
                        "assigner": {
                            "identifier": {
                                "system": "https://fhir.nhs.uk/Id/ods-organization-code",
                                "value": "699X0"
                            }
                        },
                        "system": "https://fhir.nwgenomics.nhs.uk/iGene/ReportIdentifier",
                        "type": {
                            "coding": [
                                {
                                    "code": "FILL",
                                    "system": "http://terminology.hl7.org/CodeSystem/v2-0203"
                                }
                            ]
                        },
                        "value": "Gen825750"
                    }
                ],
                "performer": [
                    {
                        "identifier": {
                            "system": "https://fhir.nhs.uk/Id/ods-organization-code",
                            "value": "699X0"
                        },
                        "type": "Organization"
                    }
                ],
                "status": "final",
                "subject": {
                    "identifier": {
                        "system": "https://fhir.nhs.uk/Id/nhs-number",
                        "type": {
                            "coding": [
                                {
                                    "code": "NH",
                                    "system": "http://terminology.hl7.org/CodeSystem/v2-0203"
                                }
                            ]
                        },
                        "value": "9737383281"
                    },
                    "reference": "urn:uuid:715a5ee9-7db2-452f-8412-8e107197b07e"
                },
                "valueCodeableConcept": {
                    "coding": [
                        {
                            "code": "-119_-116delGTCA",
                            "display": "-119_-116delGTCA",
                            "system": "http://varnomen.hgvs.org"
                        }
                    ]
                }
            }
        },
        {
            "fullUrl": "urn:uuid:7dd10795-7761-455b-a914-0cda8b2dfde0",
            "resource": {
                "resourceType": "Observation",
                "code": {
                    "coding": [
                        {
                            "code": "36908-2",
                            "display": "Gene mutations tested",
                            "system": "http://loinc.org"
                        }
                    ]
                },
                "identifier": [
                    {
                        "assigner": {
                            "identifier": {
                                "system": "https://fhir.nhs.uk/Id/ods-organization-code",
                                "value": "699X0"
                            }
                        },
                        "system": "https://fhir.nwgenomics.nhs.uk/iGene/ReportIdentifier",
                        "type": {
                            "coding": [
                                {
                                    "code": "FILL",
                                    "system": "http://terminology.hl7.org/CodeSystem/v2-0203"
                                }
                            ]
                        },
                        "value": "Gen825750"
                    }
                ],
                "performer": [
                    {
                        "identifier": {
                            "system": "https://fhir.nhs.uk/Id/ods-organization-code",
                            "value": "699X0"
                        },
                        "type": "Organization"
                    }
                ],
                "status": "final",
                "subject": {
                    "identifier": {
                        "system": "https://fhir.nhs.uk/Id/nhs-number",
                        "type": {
                            "coding": [
                                {
                                    "code": "NH",
                                    "system": "http://terminology.hl7.org/CodeSystem/v2-0203"
                                }
                            ]
                        },
                        "value": "9737383281"
                    },
                    "reference": "urn:uuid:715a5ee9-7db2-452f-8412-8e107197b07e"
                },
                "valueCodeableConcept": {
                    "coding": [
                        {
                            "code": "Asp98Asn",
                            "display": "Asp98Asn",
                            "system": "http://varnomen.hgvs.org"
                        }
                    ]
                }
            }
        },
        {
            "fullUrl": "urn:uuid:2986bd78-71e1-447a-a6c2-de807140f33d",
            "resource": {
                "resourceType": "Observation",
                "code": {
                    "coding": [
                        {
                            "code": "36908-2",
                            "display": "Gene mutations tested",
                            "system": "http://loinc.org"
                        }
                    ]
                },
                "identifier": [
                    {
                        "assigner": {
                            "identifier": {
                                "system": "https://fhir.nhs.uk/Id/ods-organization-code",
                                "value": "699X0"
                            }
                        },
                        "system": "https://fhir.nwgenomics.nhs.uk/iGene/ReportIdentifier",
                        "type": {
                            "coding": [
                                {
                                    "code": "FILL",
                                    "system": "http://terminology.hl7.org/CodeSystem/v2-0203"
                                }
                            ]
                        },
                        "value": "Gen825750"
                    }
                ],
                "performer": [
                    {
                        "identifier": {
                            "system": "https://fhir.nhs.uk/Id/ods-organization-code",
                            "value": "699X0"
                        },
                        "type": "Organization"
                    }
                ],
                "status": "final",
                "subject": {
                    "identifier": {
                        "system": "https://fhir.nhs.uk/Id/nhs-number",
                        "type": {
                            "coding": [
                                {
                                    "code": "NH",
                                    "system": "http://terminology.hl7.org/CodeSystem/v2-0203"
                                }
                            ]
                        },
                        "value": "9737383281"
                    },
                    "reference": "urn:uuid:715a5ee9-7db2-452f-8412-8e107197b07e"
                },
                "valueCodeableConcept": {
                    "coding": [
                        {
                            "code": "Gln188Arg",
                            "display": "Gln188Arg",
                            "system": "http://varnomen.hgvs.org"
                        }
                    ]
                }
            }
        },
        {
            "fullUrl": "urn:uuid:81cffc34-009d-4647-9b92-2fca884d8258",
            "resource": {
                "resourceType": "Observation",
                "code": {
                    "coding": [
                        {
                            "code": "51968-6",
                            "display": "Discrete variation analysis overall interpretation",
                            "system": "http://loinc.org"
                        }
                    ]
                },
                "identifier": [
                    {
                        "assigner": {
                            "identifier": {
                                "system": "https://fhir.nhs.uk/Id/ods-organization-code",
                                "value": "699X0"
                            }
                        },
                        "system": "https://fhir.nwgenomics.nhs.uk/iGene/ReportIdentifier",
                        "type": {
                            "coding": [
                                {
                                    "code": "FILL",
                                    "system": "http://terminology.hl7.org/CodeSystem/v2-0203"
                                }
                            ]
                        },
                        "value": "Gen825750"
                    }
                ],
                "performer": [
                    {
                        "identifier": {
                            "system": "https://fhir.nhs.uk/Id/ods-organization-code",
                            "value": "699X0"
                        },
                        "type": "Organization"
                    }
                ],
                "status": "final",
                "subject": {
                    "identifier": {
                        "system": "https://fhir.nhs.uk/Id/nhs-number",
                        "type": {
                            "coding": [
                                {
                                    "code": "NH",
                                    "system": "http://terminology.hl7.org/CodeSystem/v2-0203"
                                }
                            ]
                        },
                        "value": "9737383281"
                    },
                    "reference": "urn:uuid:715a5ee9-7db2-452f-8412-8e107197b07e"
                },
                "valueCodeableConcept": {
                    "coding": [
                        {
                            "code": "LA6576-8",
                            "display": "Positive",
                            "system": "http://loinc.org"
                        }
                    ]
                }
            }
        },
        {
            "fullUrl": "urn:uuid:6a30d156-93f2-4a7b-9242-1f2de6df247a",
            "resource": {
                "resourceType": "Binary",
                "contentType": "application/pdf",
                "data": ""
            }
        },
        {
            "fullUrl": "urn:uuid:03d60d89-da75-4708-8f27-cc6b2b696658",
            "resource": {
                "resourceType": "DocumentReference",
                "content": [
                    {
                        "attachment": {
                            "contentType": "application/pdf",
                            "url": "urn:uuid:6a30d156-93f2-4a7b-9242-1f2de6df247a"
                        }
                    }
                ],
                "context": {
                    "period": {
                        "end": "2016-08-09T16:50:00+00:00",
                        "start": "2016-08-09T16:50:00+00:00"
                    },
                    "related": [
                        {
                            "identifier": {
                                "assigner": {
                                    "identifier": {
                                        "system": "https://fhir.nhs.uk/Id/ods-organization-code",
                                        "value": "R0A"
                                    }
                                },
                                "type": {
                                    "coding": [
                                        {
                                            "code": "PLAC",
                                            "system": "http://terminology.hl7.org/CodeSystem/v2-0203"
                                        }
                                    ]
                                },
                                "value": "LRI-1601716017"
                            },
                            "reference": "urn:uuid:fe81e583-ad5a-4a11-8b41-edb99bbf132b",
                            "type": "ServiceRequest"
                        },
                        {
                            "identifier": {
                                "assigner": {
                                    "identifier": {
                                        "system": "https://fhir.nhs.uk/Id/ods-organization-code",
                                        "value": "699X0"
                                    }
                                },
                                "system": "https://fhir.nwgenomics.nhs.uk/iGene/ReportIdentifier",
                                "type": {
                                    "coding": [
                                        {
                                            "code": "FILL",
                                            "system": "http://terminology.hl7.org/CodeSystem/v2-0203"
                                        }
                                    ]
                                },
                                "value": "Gen825750"
                            },
                            "reference": "urn:uuid:e6abaa02-e6f5-460b-a486-4cccec7905f6",
                            "type": "DiagnosticReport"
                        }
                    ],
                    "sourcePatientInfo": {
                        "identifier": {
                            "assigner": {
                                "identifier": {
                                    "system": "https://fhir.nhs.uk/Id/ods-organization-code",
                                    "value": "R0A"
                                }
                            },
                            "system": "urn:oid:1.2.840.114350.1.13.611.3.7.5.737384.14",
                            "type": {
                                "coding": [
                                    {
                                        "code": "MR",
                                        "system": "http://terminology.hl7.org/CodeSystem/v2-0203"
                                    }
                                ]
                            },
                            "value": "ABC14567"
                        }
                    }
                },
                "custodian": {
                    "identifier": {
                        "system": "https://fhir.nhs.uk/Id/ods-organization-code",
                        "value": "699X0"
                    },
                    "type": "Organization"
                },
                "date": "2016-08-09T16:50:00+00:00",
                "identifier": [
                    {
                        "assigner": {
                            "identifier": {
                                "system": "https://fhir.nhs.uk/Id/ods-organization-code",
                                "value": "699X0"
                            }
                        },
                        "system": "https://fhir.nwgenomics.nhs.uk/iGene/ReportIdentifier",
                        "type": {
                            "coding": [
                                {
                                    "code": "FILL",
                                    "system": "http://terminology.hl7.org/CodeSystem/v2-0203"
                                }
                            ]
                        },
                        "value": "Gen825750"
                    }
                ],
                "status": "current",
                "subject": {
                    "identifier": {
                        "system": "https://fhir.nhs.uk/Id/nhs-number",
                        "type": {
                            "coding": [
                                {
                                    "code": "NH",
                                    "system": "http://terminology.hl7.org/CodeSystem/v2-0203"
                                }
                            ]
                        },
                        "value": "9737383281"
                    },
                    "reference": "urn:uuid:715a5ee9-7db2-452f-8412-8e107197b07e"
                },
                "type": {
                    "coding": [
                        {
                            "code": "1054161000000101",
                            "display": "Genetic report",
                            "system": "http://snomed.info/sct"
                        }
                    ]
                }
            }
        },
        {
            "fullUrl": "urn:uuid:24b43ca3-4a64-44d5-b5be-6bde73ca5171",
            "resource": {
                "resourceType": "Observation",
                "code": {
                    "coding": [
                        {
                            "code": "62374-4",
                            "display": "Human reference sequence assembly",
                            "system": "http://loinc.org"
                        }
                    ]
                },
                "identifier": [
                    {
                        "assigner": {
                            "identifier": {
                                "system": "https://fhir.nhs.uk/Id/ods-organization-code",
                                "value": "699X0"
                            }
                        },
                        "system": "https://fhir.nwgenomics.nhs.uk/iGene/ReportIdentifier",
                        "type": {
                            "coding": [
                                {
                                    "code": "FILL",
                                    "system": "http://terminology.hl7.org/CodeSystem/v2-0203"
                                }
                            ]
                        },
                        "value": "Gen825750"
                    }
                ],
                "performer": [
                    {
                        "identifier": {
                            "system": "https://fhir.nhs.uk/Id/ods-organization-code",
                            "value": "699X0"
                        },
                        "type": "Organization"
                    }
                ],
                "status": "final",
                "subject": {
                    "identifier": {
                        "system": "https://fhir.nhs.uk/Id/nhs-number",
                        "type": {
                            "coding": [
                                {
                                    "code": "NH",
                                    "system": "http://terminology.hl7.org/CodeSystem/v2-0203"
                                }
                            ]
                        },
                        "value": "9737383281"
                    },
                    "reference": "urn:uuid:715a5ee9-7db2-452f-8412-8e107197b07e"
                },
                "valueCodeableConcept": {
                    "coding": [
                        {
                            "code": "LA14029-5",
                            "display": "GRCh37",
                            "system": "http://loinc.org"
                        }
                    ]
                }
            }
        },
        {
            "fullUrl": "urn:uuid:8864101c-314e-4a9a-a6da-f3f564e07676",
            "resource": {
                "resourceType": "Observation",
                "code": {
                    "coding": [
                        {
                            "code": "82115-7",
                            "display": "dbSNP version",
                            "system": "http://loinc.org"
                        }
                    ]
                },
                "identifier": [
                    {
                        "assigner": {
                            "identifier": {
                                "system": "https://fhir.nhs.uk/Id/ods-organization-code",
                                "value": "699X0"
                            }
                        },
                        "system": "https://fhir.nwgenomics.nhs.uk/iGene/ReportIdentifier",
                        "type": {
                            "coding": [
                                {
                                    "code": "FILL",
                                    "system": "http://terminology.hl7.org/CodeSystem/v2-0203"
                                }
                            ]
                        },
                        "value": "Gen825750"
                    }
                ],
                "performer": [
                    {
                        "identifier": {
                            "system": "https://fhir.nhs.uk/Id/ods-organization-code",
                            "value": "699X0"
                        },
                        "type": "Organization"
                    }
                ],
                "status": "final",
                "subject": {
                    "identifier": {
                        "system": "https://fhir.nhs.uk/Id/nhs-number",
                        "type": {
                            "coding": [
                                {
                                    "code": "NH",
                                    "system": "http://terminology.hl7.org/CodeSystem/v2-0203"
                                }
                            ]
                        },
                        "value": "9737383281"
                    },
                    "reference": "urn:uuid:715a5ee9-7db2-452f-8412-8e107197b07e"
                },
                "valueQuantity": {
                    "system": "http://unitsofmeasure.org",
                    "unit": "Attributes of Discrete Genetic Variants: Report Section 2",
                    "value": 147
                }
            }
        },
        {
            "fullUrl": "urn:uuid:bf120779-309d-4289-9a71-37f856dc2d2f",
            "resource": {
                "resourceType": "Observation",
                "code": {
                    "coding": [
                        {
                            "code": "83005-9",
                            "display": "Variant Category",
                            "system": "http://loinc.org"
                        }
                    ]
                },
                "identifier": [
                    {
                        "assigner": {
                            "identifier": {
                                "system": "https://fhir.nhs.uk/Id/ods-organization-code",
                                "value": "699X0"
                            }
                        },
                        "system": "https://fhir.nwgenomics.nhs.uk/iGene/ReportIdentifier",
                        "type": {
                            "coding": [
                                {
                                    "code": "FILL",
                                    "system": "http://terminology.hl7.org/CodeSystem/v2-0203"
                                }
                            ]
                        },
                        "value": "Gen825750"
                    }
                ],
                "performer": [
                    {
                        "identifier": {
                            "system": "https://fhir.nhs.uk/Id/ods-organization-code",
                            "value": "699X0"
                        },
                        "type": "Organization"
                    }
                ],
                "status": "final",
                "subject": {
                    "identifier": {
                        "system": "https://fhir.nhs.uk/Id/nhs-number",
                        "type": {
                            "coding": [
                                {
                                    "code": "NH",
                                    "system": "http://terminology.hl7.org/CodeSystem/v2-0203"
                                }
                            ]
                        },
                        "value": "9737383281"
                    },
                    "reference": "urn:uuid:715a5ee9-7db2-452f-8412-8e107197b07e"
                },
                "valueCodeableConcept": {
                    "coding": [
                        {
                            "code": "LA26801-3",
                            "display": "Simple Variant",
                            "system": "http://loinc.org"
                        }
                    ]
                }
            }
        },
        {
            "fullUrl": "urn:uuid:d1ed5824-bfa8-4d15-bd6a-2398f18339da",
            "resource": {
                "resourceType": "Observation",
                "code": {
                    "coding": [
                        {
                            "code": "81252-9",
                            "display": "Discrete genetic variant",
                            "system": "http://loinc.org"
                        }
                    ]
                },
                "identifier": [
                    {
                        "assigner": {
                            "identifier": {
                                "system": "https://fhir.nhs.uk/Id/ods-organization-code",
                                "value": "699X0"
                            }
                        },
                        "system": "https://fhir.nwgenomics.nhs.uk/iGene/ReportIdentifier",
                        "type": {
                            "coding": [
                                {
                                    "code": "FILL",
                                    "system": "http://terminology.hl7.org/CodeSystem/v2-0203"
                                }
                            ]
                        },
                        "value": "Gen825750"
                    }
                ],
                "performer": [
                    {
                        "identifier": {
                            "system": "https://fhir.nhs.uk/Id/ods-organization-code",
                            "value": "699X0"
                        },
                        "type": "Organization"
                    }
                ],
                "status": "final",
                "subject": {
                    "identifier": {
                        "system": "https://fhir.nhs.uk/Id/nhs-number",
                        "type": {
                            "coding": [
                                {
                                    "code": "NH",
                                    "system": "http://terminology.hl7.org/CodeSystem/v2-0203"
                                }
                            ]
                        },
                        "value": "9737383281"
                    },
                    "reference": "urn:uuid:715a5ee9-7db2-452f-8412-8e107197b07e"
                },
                "valueCodeableConcept": {
                    "coding": [
                        {
                            "code": "3614",
                            "display": "NM_000155.3(GALT):c.563A>G(p.Gln188Arg)",
                            "system": "http://www.ncbi.nlm.nih.gov/clinvar"
                        }
                    ]
                }
            }
        },
        {
            "fullUrl": "urn:uuid:8fcbc373-7c7b-4c04-b7d3-fc584ddcb18d",
            "resource": {
                "resourceType": "Observation",
                "code": {
                    "coding": [
                        {
                            "code": "48018-6",
                            "display": "Gene studied",
                            "system": "http://loinc.org"
                        }
                    ]
                },
                "identifier": [
                    {
                        "assigner": {
                            "identifier": {
                                "system": "https://fhir.nhs.uk/Id/ods-organization-code",
                                "value": "699X0"
                            }
                        },
                        "system": "https://fhir.nwgenomics.nhs.uk/iGene/ReportIdentifier",
                        "type": {
                            "coding": [
                                {
                                    "code": "FILL",
                                    "system": "http://terminology.hl7.org/CodeSystem/v2-0203"
                                }
                            ]
                        },
                        "value": "Gen825750"
                    }
                ],
                "performer": [
                    {
                        "identifier": {
                            "system": "https://fhir.nhs.uk/Id/ods-organization-code",
                            "value": "699X0"
                        },
                        "type": "Organization"
                    }
                ],
                "status": "final",
                "subject": {
                    "identifier": {
                        "system": "https://fhir.nhs.uk/Id/nhs-number",
                        "type": {
                            "coding": [
                                {
                                    "code": "NH",
                                    "system": "http://terminology.hl7.org/CodeSystem/v2-0203"
                                }
                            ]
                        },
                        "value": "9737383281"
                    },
                    "reference": "urn:uuid:715a5ee9-7db2-452f-8412-8e107197b07e"
                },
                "valueCodeableConcept": {
                    "coding": [
                        {
                            "code": "3614",
                            "display": "GALT",
                            "system": "http://www.genenames.org"
                        }
                    ]
                }
            }
        },
        {
            "fullUrl": "urn:uuid:1ae29b22-1612-4798-80aa-ef919b13060b",
            "resource": {
                "resourceType": "Observation",
                "code": {
                    "coding": [
                        {
                            "code": "51958-7",
                            "display": "Transcript RefSeq ID",
                            "system": "http://loinc.org"
                        }
                    ]
                },
                "identifier": [
                    {
                        "assigner": {
                            "identifier": {
                                "system": "https://fhir.nhs.uk/Id/ods-organization-code",
                                "value": "699X0"
                            }
                        },
                        "system": "https://fhir.nwgenomics.nhs.uk/iGene/ReportIdentifier",
                        "type": {
                            "coding": [
                                {
                                    "code": "FILL",
                                    "system": "http://terminology.hl7.org/CodeSystem/v2-0203"
                                }
                            ]
                        },
                        "value": "Gen825750"
                    }
                ],
                "performer": [
                    {
                        "identifier": {
                            "system": "https://fhir.nhs.uk/Id/ods-organization-code",
                            "value": "699X0"
                        },
                        "type": "Organization"
                    }
                ],
                "status": "final",
                "subject": {
                    "identifier": {
                        "system": "https://fhir.nhs.uk/Id/nhs-number",
                        "type": {
                            "coding": [
                                {
                                    "code": "NH",
                                    "system": "http://terminology.hl7.org/CodeSystem/v2-0203"
                                }
                            ]
                        },
                        "value": "9737383281"
                    },
                    "reference": "urn:uuid:715a5ee9-7db2-452f-8412-8e107197b07e"
                },
                "valueCodeableConcept": {
                    "coding": [
                        {
                            "code": "NM_000155.3",
                            "display": "NM_000155.3",
                            "system": "http://www.ncbi.nlm.nih.gov/refseq"
                        }
                    ]
                }
            }
        },
        {
            "fullUrl": "urn:uuid:4de424f7-d2f9-44ea-81b2-6abd6c2076a9",
            "resource": {
                "resourceType": "Observation",
                "code": {
                    "coding": [
                        {
                            "code": "41103-3",
                            "display": "Transcript DNA Change (cHGVS)",
                            "system": "http://loinc.org"
                        }
                    ]
                },
                "identifier": [
                    {
                        "assigner": {
                            "identifier": {
                                "system": "https://fhir.nhs.uk/Id/ods-organization-code",
                                "value": "699X0"
                            }
                        },
                        "system": "https://fhir.nwgenomics.nhs.uk/iGene/ReportIdentifier",
                        "type": {
                            "coding": [
                                {
                                    "code": "FILL",
                                    "system": "http://terminology.hl7.org/CodeSystem/v2-0203"
                                }
                            ]
                        },
                        "value": "Gen825750"
                    }
                ],
                "performer": [
                    {
                        "identifier": {
                            "system": "https://fhir.nhs.uk/Id/ods-organization-code",
                            "value": "699X0"
                        },
                        "type": "Organization"
                    }
                ],
                "status": "final",
                "subject": {
                    "identifier": {
                        "system": "https://fhir.nhs.uk/Id/nhs-number",
                        "type": {
                            "coding": [
                                {
                                    "code": "NH",
                                    "system": "http://terminology.hl7.org/CodeSystem/v2-0203"
                                }
                            ]
                        },
                        "value": "9737383281"
                    },
                    "reference": "urn:uuid:715a5ee9-7db2-452f-8412-8e107197b07e"
                },
                "valueCodeableConcept": {
                    "coding": [
                        {
                            "code": "c.563A>G",
                            "display": "c.563A>G",
                            "system": "http://varnomen.hgvs.org"
                        }
                    ]
                }
            }
        },
        {
            "fullUrl": "urn:uuid:2f47f7d5-0f24-41a1-98f9-21c635f79e30",
            "resource": {
                "resourceType": "Observation",
                "code": {
                    "coding": [
                        {
                            "code": "48005-3",
                            "display": "Amino acid change p.HGVS",
                            "system": "http://loinc.org"
                        }
                    ]
                },
                "identifier": [
                    {
                        "assigner": {
                            "identifier": {
                                "system": "https://fhir.nhs.uk/Id/ods-organization-code",
                                "value": "699X0"
                            }
                        },
                        "system": "https://fhir.nwgenomics.nhs.uk/iGene/ReportIdentifier",
                        "type": {
                            "coding": [
                                {
                                    "code": "FILL",
                                    "system": "http://terminology.hl7.org/CodeSystem/v2-0203"
                                }
                            ]
                        },
                        "value": "Gen825750"
                    }
                ],
                "performer": [
                    {
                        "identifier": {
                            "system": "https://fhir.nhs.uk/Id/ods-organization-code",
                            "value": "699X0"
                        },
                        "type": "Organization"
                    }
                ],
                "status": "final",
                "subject": {
                    "identifier": {
                        "system": "https://fhir.nhs.uk/Id/nhs-number",
                        "type": {
                            "coding": [
                                {
                                    "code": "NH",
                                    "system": "http://terminology.hl7.org/CodeSystem/v2-0203"
                                }
                            ]
                        },
                        "value": "9737383281"
                    },
                    "reference": "urn:uuid:715a5ee9-7db2-452f-8412-8e107197b07e"
                },
                "valueCodeableConcept": {
                    "coding": [
                        {
                            "code": "p.Gln188Arg",
                            "display": "p.Gln188Arg",
                            "system": "http://varnomen.hgvs.org"
                        }
                    ]
                }
            }
        },
        {
            "fullUrl": "urn:uuid:b8b74170-096c-4a11-8138-03c6f5ac6eb6",
            "resource": {
                "resourceType": "Observation",
                "code": {
                    "coding": [
                        {
                            "code": "48019-4",
                            "display": "DNA change type",
                            "system": "http://loinc.org"
                        }
                    ]
                },
                "identifier": [
                    {
                        "assigner": {
                            "identifier": {
                                "system": "https://fhir.nhs.uk/Id/ods-organization-code",
                                "value": "699X0"
                            }
                        },
                        "system": "https://fhir.nwgenomics.nhs.uk/iGene/ReportIdentifier",
                        "type": {
                            "coding": [
                                {
                                    "code": "FILL",
                                    "system": "http://terminology.hl7.org/CodeSystem/v2-0203"
                                }
                            ]
                        },
                        "value": "Gen825750"
                    }
                ],
                "performer": [
                    {
                        "identifier": {
                            "system": "https://fhir.nhs.uk/Id/ods-organization-code",
                            "value": "699X0"
                        },
                        "type": "Organization"
                    }
                ],
                "status": "final",
                "subject": {
                    "identifier": {
                        "system": "https://fhir.nhs.uk/Id/nhs-number",
                        "type": {
                            "coding": [
                                {
                                    "code": "NH",
                                    "system": "http://terminology.hl7.org/CodeSystem/v2-0203"
                                }
                            ]
                        },
                        "value": "9737383281"
                    },
                    "reference": "urn:uuid:715a5ee9-7db2-452f-8412-8e107197b07e"
                },
                "valueCodeableConcept": {
                    "coding": [
                        {
                            "code": "LA6690-7",
                            "display": "Substitution",
                            "system": "http://loinc.org"
                        }
                    ]
                }
            }
        },
        {
            "fullUrl": "urn:uuid:5a38ecb4-cd15-4f67-b222-311cb6b59cab",
            "resource": {
                "resourceType": "Observation",
                "code": {
                    "coding": [
                        {
                            "code": "48006-1",
                            "display": "Amino Acid change type"
                        }
                    ]
                },
                "identifier": [
                    {
                        "assigner": {
                            "identifier": {
                                "system": "https://fhir.nhs.uk/Id/ods-organization-code",
                                "value": "699X0"
                            }
                        },
                        "system": "https://fhir.nwgenomics.nhs.uk/iGene/ReportIdentifier",
                        "type": {
                            "coding": [
                                {
                                    "code": "FILL",
                                    "system": "http://terminology.hl7.org/CodeSystem/v2-0203"
                                }
                            ]
                        },
                        "value": "Gen825750"
                    }
                ],
                "performer": [
                    {
                        "identifier": {
                            "system": "https://fhir.nhs.uk/Id/ods-organization-code",
                            "value": "699X0"
                        },
                        "type": "Organization"
                    }
                ],
                "status": "final",
                "subject": {
                    "identifier": {
                        "system": "https://fhir.nhs.uk/Id/nhs-number",
                        "type": {
                            "coding": [
                                {
                                    "code": "NH",
                                    "system": "http://terminology.hl7.org/CodeSystem/v2-0203"
                                }
                            ]
                        },
                        "value": "9737383281"
                    },
                    "reference": "urn:uuid:715a5ee9-7db2-452f-8412-8e107197b07e"
                },
                "valueCodeableConcept": {
                    "coding": [
                        {
                            "code": "LA6698-0",
                            "display": "Missense",
                            "system": "http://loinc.org"
                        }
                    ]
                }
            }
        },
        {
            "fullUrl": "urn:uuid:46ddcb71-283e-4e57-a42a-10f51fc29412",
            "resource": {
                "resourceType": "Observation",
                "code": {
                    "coding": [
                        {
                            "code": "48013-7",
                            "display": "Genomic reference sequence",
                            "system": "http://loinc.org"
                        }
                    ]
                },
                "identifier": [
                    {
                        "assigner": {
                            "identifier": {
                                "system": "https://fhir.nhs.uk/Id/ods-organization-code",
                                "value": "699X0"
                            }
                        },
                        "system": "https://fhir.nwgenomics.nhs.uk/iGene/ReportIdentifier",
                        "type": {
                            "coding": [
                                {
                                    "code": "FILL",
                                    "system": "http://terminology.hl7.org/CodeSystem/v2-0203"
                                }
                            ]
                        },
                        "value": "Gen825750"
                    }
                ],
                "performer": [
                    {
                        "identifier": {
                            "system": "https://fhir.nhs.uk/Id/ods-organization-code",
                            "value": "699X0"
                        },
                        "type": "Organization"
                    }
                ],
                "status": "final",
                "subject": {
                    "identifier": {
                        "system": "https://fhir.nhs.uk/Id/nhs-number",
                        "type": {
                            "coding": [
                                {
                                    "code": "NH",
                                    "system": "http://terminology.hl7.org/CodeSystem/v2-0203"
                                }
                            ]
                        },
                        "value": "9737383281"
                    },
                    "reference": "urn:uuid:715a5ee9-7db2-452f-8412-8e107197b07e"
                },
                "valueCodeableConcept": {
                    "coding": [
                        {
                            "code": "NG_009029.1:g.6533A>G",
                            "display": "NG_009029.1:g.6533A>G",
                            "system": "http://www.ncbi.nlm.nih.gov/refseq"
                        }
                    ]
                }
            }
        },
        {
            "fullUrl": "urn:uuid:0bd4a47b-d27b-410a-b11f-080bd862f9ab",
            "resource": {
                "resourceType": "Observation",
                "code": {
                    "coding": [
                        {
                            "code": "81290-9",
                            "display": "Genomic DNA change(gHGVS)",
                            "system": "http://loinc.org"
                        }
                    ]
                },
                "identifier": [
                    {
                        "assigner": {
                            "identifier": {
                                "system": "https://fhir.nhs.uk/Id/ods-organization-code",
                                "value": "699X0"
                            }
                        },
                        "system": "https://fhir.nwgenomics.nhs.uk/iGene/ReportIdentifier",
                        "type": {
                            "coding": [
                                {
                                    "code": "FILL",
                                    "system": "http://terminology.hl7.org/CodeSystem/v2-0203"
                                }
                            ]
                        },
                        "value": "Gen825750"
                    }
                ],
                "performer": [
                    {
                        "identifier": {
                            "system": "https://fhir.nhs.uk/Id/ods-organization-code",
                            "value": "699X0"
                        },
                        "type": "Organization"
                    }
                ],
                "status": "final",
                "subject": {
                    "identifier": {
                        "system": "https://fhir.nhs.uk/Id/nhs-number",
                        "type": {
                            "coding": [
                                {
                                    "code": "NH",
                                    "system": "http://terminology.hl7.org/CodeSystem/v2-0203"
                                }
                            ]
                        },
                        "value": "9737383281"
                    },
                    "reference": "urn:uuid:715a5ee9-7db2-452f-8412-8e107197b07e"
                },
                "valueCodeableConcept": {
                    "coding": [
                        {
                            "code": "NC_000009.11:g.34648167A>G",
                            "display": "NC_000009.11:g.34648167A>G",
                            "system": "http://varnomen.hgvs.org"
                        }
                    ]
                }
            }
        },
        {
            "fullUrl": "urn:uuid:58ba7844-b1da-497d-b5a1-27e7d47f50f4",
            "resource": {
                "resourceType": "Observation",
                "code": {
                    "coding": [
                        {
                            "code": "69547-8",
                            "display": "Genomic ref allele",
                            "system": "http://loinc.org"
                        }
                    ]
                },
                "identifier": [
                    {
                        "assigner": {
                            "identifier": {
                                "system": "https://fhir.nhs.uk/Id/ods-organization-code",
                                "value": "699X0"
                            }
                        },
                        "system": "https://fhir.nwgenomics.nhs.uk/iGene/ReportIdentifier",
                        "type": {
                            "coding": [
                                {
                                    "code": "FILL",
                                    "system": "http://terminology.hl7.org/CodeSystem/v2-0203"
                                }
                            ]
                        },
                        "value": "Gen825750"
                    }
                ],
                "performer": [
                    {
                        "identifier": {
                            "system": "https://fhir.nhs.uk/Id/ods-organization-code",
                            "value": "699X0"
                        },
                        "type": "Organization"
                    }
                ],
                "status": "final",
                "subject": {
                    "identifier": {
                        "system": "https://fhir.nhs.uk/Id/nhs-number",
                        "type": {
                            "coding": [
                                {
                                    "code": "NH",
                                    "system": "http://terminology.hl7.org/CodeSystem/v2-0203"
                                }
                            ]
                        },
                        "value": "9737383281"
                    },
                    "reference": "urn:uuid:715a5ee9-7db2-452f-8412-8e107197b07e"
                },
                "valueString": "A"
            }
        },
        {
            "fullUrl": "urn:uuid:4d1a2f34-0980-4244-b8ba-e502a0dff42a",
            "resource": {
                "resourceType": "Observation",
                "code": {
                    "coding": [
                        {
                            "code": "81254-5",
                            "display": "Genomic allele start-end",
                            "system": "http://loinc.org"
                        }
                    ]
                },
                "identifier": [
                    {
                        "assigner": {
                            "identifier": {
                                "system": "https://fhir.nhs.uk/Id/ods-organization-code",
                                "value": "699X0"
                            }
                        },
                        "system": "https://fhir.nwgenomics.nhs.uk/iGene/ReportIdentifier",
                        "type": {
                            "coding": [
                                {
                                    "code": "FILL",
                                    "system": "http://terminology.hl7.org/CodeSystem/v2-0203"
                                }
                            ]
                        },
                        "value": "Gen825750"
                    }
                ],
                "performer": [
                    {
                        "identifier": {
                            "system": "https://fhir.nhs.uk/Id/ods-organization-code",
                            "value": "699X0"
                        },
                        "type": "Organization"
                    }
                ],
                "status": "final",
                "subject": {
                    "identifier": {
                        "system": "https://fhir.nhs.uk/Id/nhs-number",
                        "type": {
                            "coding": [
                                {
                                    "code": "NH",
                                    "system": "http://terminology.hl7.org/CodeSystem/v2-0203"
                                }
                            ]
                        },
                        "value": "9737383281"
                    },
                    "reference": "urn:uuid:715a5ee9-7db2-452f-8412-8e107197b07e"
                }
            }
        },
        {
            "fullUrl": "urn:uuid:4e0d9697-6b8e-40b2-9e4b-f520ad4a63dd",
            "resource": {
                "resourceType": "Observation",
                "code": {
                    "coding": [
                        {
                            "code": "69551-0",
                            "display": "Genomic alt allele",
                            "system": "http://loinc.org"
                        }
                    ]
                },
                "identifier": [
                    {
                        "assigner": {
                            "identifier": {
                                "system": "https://fhir.nhs.uk/Id/ods-organization-code",
                                "value": "699X0"
                            }
                        },
                        "system": "https://fhir.nwgenomics.nhs.uk/iGene/ReportIdentifier",
                        "type": {
                            "coding": [
                                {
                                    "code": "FILL",
                                    "system": "http://terminology.hl7.org/CodeSystem/v2-0203"
                                }
                            ]
                        },
                        "value": "Gen825750"
                    }
                ],
                "performer": [
                    {
                        "identifier": {
                            "system": "https://fhir.nhs.uk/Id/ods-organization-code",
                            "value": "699X0"
                        },
                        "type": "Organization"
                    }
                ],
                "status": "final",
                "subject": {
                    "identifier": {
                        "system": "https://fhir.nhs.uk/Id/nhs-number",
                        "type": {
                            "coding": [
                                {
                                    "code": "NH",
                                    "system": "http://terminology.hl7.org/CodeSystem/v2-0203"
                                }
                            ]
                        },
                        "value": "9737383281"
                    },
                    "reference": "urn:uuid:715a5ee9-7db2-452f-8412-8e107197b07e"
                },
                "valueString": "G"
            }
        },
        {
            "fullUrl": "urn:uuid:5cc9aea6-fff8-46ac-a4cb-dc7ab0747d03",
            "resource": {
                "resourceType": "Observation",
                "code": {
                    "coding": [
                        {
                            "code": "81255-2",
                            "display": "dbSNP ID",
                            "system": "http://loinc.org"
                        }
                    ]
                },
                "identifier": [
                    {
                        "assigner": {
                            "identifier": {
                                "system": "https://fhir.nhs.uk/Id/ods-organization-code",
                                "value": "699X0"
                            }
                        },
                        "system": "https://fhir.nwgenomics.nhs.uk/iGene/ReportIdentifier",
                        "type": {
                            "coding": [
                                {
                                    "code": "FILL",
                                    "system": "http://terminology.hl7.org/CodeSystem/v2-0203"
                                }
                            ]
                        },
                        "value": "Gen825750"
                    }
                ],
                "performer": [
                    {
                        "identifier": {
                            "system": "https://fhir.nhs.uk/Id/ods-organization-code",
                            "value": "699X0"
                        },
                        "type": "Organization"
                    }
                ],
                "status": "final",
                "subject": {
                    "identifier": {
                        "system": "https://fhir.nhs.uk/Id/nhs-number",
                        "type": {
                            "coding": [
                                {
                                    "code": "NH",
                                    "system": "http://terminology.hl7.org/CodeSystem/v2-0203"
                                }
                            ]
                        },
                        "value": "9737383281"
                    },
                    "reference": "urn:uuid:715a5ee9-7db2-452f-8412-8e107197b07e"
                },
                "valueCodeableConcept": {
                    "coding": [
                        {
                            "code": "rs75391579",
                            "display": "rs75391579",
                            "system": "http://www.ncbi.nlm.nih.gov/projects/SNP"
                        }
                    ]
                }
            }
        },
        {
            "fullUrl": "urn:uuid:c18e9bca-b6ff-4da7-854c-db072b80b40c",
            "resource": {
                "resourceType": "Observation",
                "code": {
                    "coding": [
                        {
                            "code": "48001-2",
                            "display": "Cytogenetic (chromosome) location",
                            "system": "http://loinc.org"
                        }
                    ]
                },
                "identifier": [
                    {
                        "assigner": {
                            "identifier": {
                                "system": "https://fhir.nhs.uk/Id/ods-organization-code",
                                "value": "699X0"
                            }
                        },
                        "system": "https://fhir.nwgenomics.nhs.uk/iGene/ReportIdentifier",
                        "type": {
                            "coding": [
                                {
                                    "code": "FILL",
                                    "system": "http://terminology.hl7.org/CodeSystem/v2-0203"
                                }
                            ]
                        },
                        "value": "Gen825750"
                    }
                ],
                "performer": [
                    {
                        "identifier": {
                            "system": "https://fhir.nhs.uk/Id/ods-organization-code",
                            "value": "699X0"
                        },
                        "type": "Organization"
                    }
                ],
                "status": "final",
                "subject": {
                    "identifier": {
                        "system": "https://fhir.nhs.uk/Id/nhs-number",
                        "type": {
                            "coding": [
                                {
                                    "code": "NH",
                                    "system": "http://terminology.hl7.org/CodeSystem/v2-0203"
                                }
                            ]
                        },
                        "value": "9737383281"
                    },
                    "reference": "urn:uuid:715a5ee9-7db2-452f-8412-8e107197b07e"
                },
                "valueCodeableConcept": {
                    "coding": [
                        {
                            "code": "9p13",
                            "display": "9p13",
                            "system": "Chrom-Loc"
                        }
                    ]
                }
            }
        },
        {
            "fullUrl": "urn:uuid:37004bbe-8dbc-427e-bf73-a4a7832ae97c",
            "resource": {
                "resourceType": "Observation",
                "code": {
                    "coding": [
                        {
                            "code": "48002-0",
                            "display": "Genomic source class",
                            "system": "http://loinc.org"
                        }
                    ]
                },
                "identifier": [
                    {
                        "assigner": {
                            "identifier": {
                                "system": "https://fhir.nhs.uk/Id/ods-organization-code",
                                "value": "699X0"
                            }
                        },
                        "system": "https://fhir.nwgenomics.nhs.uk/iGene/ReportIdentifier",
                        "type": {
                            "coding": [
                                {
                                    "code": "FILL",
                                    "system": "http://terminology.hl7.org/CodeSystem/v2-0203"
                                }
                            ]
                        },
                        "value": "Gen825750"
                    }
                ],
                "performer": [
                    {
                        "identifier": {
                            "system": "https://fhir.nhs.uk/Id/ods-organization-code",
                            "value": "699X0"
                        },
                        "type": "Organization"
                    }
                ],
                "status": "final",
                "subject": {
                    "identifier": {
                        "system": "https://fhir.nhs.uk/Id/nhs-number",
                        "type": {
                            "coding": [
                                {
                                    "code": "NH",
                                    "system": "http://terminology.hl7.org/CodeSystem/v2-0203"
                                }
                            ]
                        },
                        "value": "9737383281"
                    },
                    "reference": "urn:uuid:715a5ee9-7db2-452f-8412-8e107197b07e"
                },
                "valueCodeableConcept": {
                    "coding": [
                        {
                            "code": "LA6683-2",
                            "display": "Germline",
                            "system": "http://loinc.org"
                        }
                    ]
                }
            }
        },
        {
            "fullUrl": "urn:uuid:6993323c-cb4d-42e8-9731-f1bebdfb1b44",
            "resource": {
                "resourceType": "Observation",
                "code": {
                    "coding": [
                        {
                            "code": "81304-8",
                            "display": "Variant analysis method type",
                            "system": "http://loinc.org"
                        }
                    ]
                },
                "identifier": [
                    {
                        "assigner": {
                            "identifier": {
                                "system": "https://fhir.nhs.uk/Id/ods-organization-code",
                                "value": "699X0"
                            }
                        },
                        "system": "https://fhir.nwgenomics.nhs.uk/iGene/ReportIdentifier",
                        "type": {
                            "coding": [
                                {
                                    "code": "FILL",
                                    "system": "http://terminology.hl7.org/CodeSystem/v2-0203"
                                }
                            ]
                        },
                        "value": "Gen825750"
                    }
                ],
                "performer": [
                    {
                        "identifier": {
                            "system": "https://fhir.nhs.uk/Id/ods-organization-code",
                            "value": "699X0"
                        },
                        "type": "Organization"
                    }
                ],
                "status": "final",
                "subject": {
                    "identifier": {
                        "system": "https://fhir.nhs.uk/Id/nhs-number",
                        "type": {
                            "coding": [
                                {
                                    "code": "NH",
                                    "system": "http://terminology.hl7.org/CodeSystem/v2-0203"
                                }
                            ]
                        },
                        "value": "9737383281"
                    },
                    "reference": "urn:uuid:715a5ee9-7db2-452f-8412-8e107197b07e"
                },
                "valueCodeableConcept": {
                    "coding": [
                        {
                            "code": "LA26418-6",
                            "display": "PCR",
                            "system": "http://loinc.org"
                        }
                    ]
                }
            }
        },
        {
            "fullUrl": "urn:uuid:a17d4c24-b01e-4292-aaca-99a41b2f354c",
            "resource": {
                "resourceType": "Observation",
                "code": {
                    "coding": [
                        {
                            "code": "53037-8",
                            "display": "Genetic variation clinical significance",
                            "system": "http://loinc.org"
                        }
                    ]
                },
                "identifier": [
                    {
                        "assigner": {
                            "identifier": {
                                "system": "https://fhir.nhs.uk/Id/ods-organization-code",
                                "value": "699X0"
                            }
                        },
                        "system": "https://fhir.nwgenomics.nhs.uk/iGene/ReportIdentifier",
                        "type": {
                            "coding": [
                                {
                                    "code": "FILL",
                                    "system": "http://terminology.hl7.org/CodeSystem/v2-0203"
                                }
                            ]
                        },
                        "value": "Gen825750"
                    }
                ],
                "performer": [
                    {
                        "identifier": {
                            "system": "https://fhir.nhs.uk/Id/ods-organization-code",
                            "value": "699X0"
                        },
                        "type": "Organization"
                    }
                ],
                "status": "final",
                "subject": {
                    "identifier": {
                        "system": "https://fhir.nhs.uk/Id/nhs-number",
                        "type": {
                            "coding": [
                                {
                                    "code": "NH",
                                    "system": "http://terminology.hl7.org/CodeSystem/v2-0203"
                                }
                            ]
                        },
                        "value": "9737383281"
                    },
                    "reference": "urn:uuid:715a5ee9-7db2-452f-8412-8e107197b07e"
                },
                "valueCodeableConcept": {
                    "coding": [
                        {
                            "code": "LA6668-3",
                            "display": "Pathogenic",
                            "system": "http://loinc.org"
                        }
                    ]
                }
            }
        },
        {
            "fullUrl": "urn:uuid:cb754430-c39d-42ce-9857-729cbe167cbd",
            "resource": {
                "resourceType": "Observation",
                "code": {
                    "coding": [
                        {
                            "code": "69548-6",
                            "display": "Genetic variant assessment",
                            "system": "http://loinc.org"
                        }
                    ]
                },
                "identifier": [
                    {
                        "assigner": {
                            "identifier": {
                                "system": "https://fhir.nhs.uk/Id/ods-organization-code",
                                "value": "699X0"
                            }
                        },
                        "system": "https://fhir.nwgenomics.nhs.uk/iGene/ReportIdentifier",
                        "type": {
                            "coding": [
                                {
                                    "code": "FILL",
                                    "system": "http://terminology.hl7.org/CodeSystem/v2-0203"
                                }
                            ]
                        },
                        "value": "Gen825750"
                    }
                ],
                "performer": [
                    {
                        "identifier": {
                            "system": "https://fhir.nhs.uk/Id/ods-organization-code",
                            "value": "699X0"
                        },
                        "type": "Organization"
                    }
                ],
                "status": "final",
                "subject": {
                    "identifier": {
                        "system": "https://fhir.nhs.uk/Id/nhs-number",
                        "type": {
                            "coding": [
                                {
                                    "code": "NH",
                                    "system": "http://terminology.hl7.org/CodeSystem/v2-0203"
                                }
                            ]
                        },
                        "value": "9737383281"
                    },
                    "reference": "urn:uuid:715a5ee9-7db2-452f-8412-8e107197b07e"
                },
                "valueCodeableConcept": {
                    "coding": [
                        {
                            "code": "LA9633-4",
                            "display": "Present",
                            "system": "http://loinc.org"
                        }
                    ]
                }
            }
        },
        {
            "fullUrl": "urn:uuid:f22181e2-e977-46b6-b65a-a038720c0cc8",
            "resource": {
                "resourceType": "Observation",
                "code": {
                    "coding": [
                        {
                            "code": "81259-4",
                            "display": "Probable associated phenotype",
                            "system": "http://loinc.org"
                        }
                    ]
                },
                "identifier": [
                    {
                        "assigner": {
                            "identifier": {
                                "system": "https://fhir.nhs.uk/Id/ods-organization-code",
                                "value": "699X0"
                            }
                        },
                        "system": "https://fhir.nwgenomics.nhs.uk/iGene/ReportIdentifier",
                        "type": {
                            "coding": [
                                {
                                    "code": "FILL",
                                    "system": "http://terminology.hl7.org/CodeSystem/v2-0203"
                                }
                            ]
                        },
                        "value": "Gen825750"
                    }
                ],
                "performer": [
                    {
                        "identifier": {
                            "system": "https://fhir.nhs.uk/Id/ods-organization-code",
                            "value": "699X0"
                        },
                        "type": "Organization"
                    }
                ],
                "status": "final",
                "subject": {
                    "identifier": {
                        "system": "https://fhir.nhs.uk/Id/nhs-number",
                        "type": {
                            "coding": [
                                {
                                    "code": "NH",
                                    "system": "http://terminology.hl7.org/CodeSystem/v2-0203"
                                }
                            ]
                        },
                        "value": "9737383281"
                    },
                    "reference": "urn:uuid:715a5ee9-7db2-452f-8412-8e107197b07e"
                },
                "valueCodeableConcept": {
                    "coding": [
                        {
                            "code": "C0268151",
                            "display": "Deficiency of UDPglucose-hexose-1-phosphateuridylyltransferase",
                            "system": "MedGen-Dis"
                        }
                    ]
                }
            }
        },
        {
            "fullUrl": "urn:uuid:aa088315-bc55-4ccf-9baf-570ac8451018",
            "resource": {
                "resourceType": "Observation",
                "code": {
                    "coding": [
                        {
                            "code": "53034-5",
                            "display": "Allelic state",
                            "system": "http://loinc.org"
                        }
                    ]
                },
                "identifier": [
                    {
                        "assigner": {
                            "identifier": {
                                "system": "https://fhir.nhs.uk/Id/ods-organization-code",
                                "value": "699X0"
                            }
                        },
                        "system": "https://fhir.nwgenomics.nhs.uk/iGene/ReportIdentifier",
                        "type": {
                            "coding": [
                                {
                                    "code": "FILL",
                                    "system": "http://terminology.hl7.org/CodeSystem/v2-0203"
                                }
                            ]
                        },
                        "value": "Gen825750"
                    }
                ],
                "performer": [
                    {
                        "identifier": {
                            "system": "https://fhir.nhs.uk/Id/ods-organization-code",
                            "value": "699X0"
                        },
                        "type": "Organization"
                    }
                ],
                "status": "final",
                "subject": {
                    "identifier": {
                        "system": "https://fhir.nhs.uk/Id/nhs-number",
                        "type": {
                            "coding": [
                                {
                                    "code": "NH",
                                    "system": "http://terminology.hl7.org/CodeSystem/v2-0203"
                                }
                            ]
                        },
                        "value": "9737383281"
                    },
                    "reference": "urn:uuid:715a5ee9-7db2-452f-8412-8e107197b07e"
                },
                "valueCodeableConcept": {
                    "coding": [
                        {
                            "code": "LA6706-1",
                            "display": "Heterozygous",
                            "system": "http://loinc.org"
                        }
                    ]
                }
            }
        },
        {
            "fullUrl": "urn:uuid:fe81e583-ad5a-4a11-8b41-edb99bbf132b",
            "resource": {
                "resourceType": "ServiceRequest",
                "authoredOn": "2016-08-03",
                "category": [
                    {
                        "coding": [
                            {
                                "code": "116148004",
                                "system": "http://snomed.info/sct"
                            }
                        ]
                    }
                ],
                "code": {
                    "coding": [
                        {
                            "code": "42318-6",
                            "display": "GALT gene targeted mutation analysis",
                            "system": "http://loinc.org"
                        }
                    ]
                },
                "identifier": [
                    {
                        "assigner": {
                            "identifier": {
                                "system": "https://fhir.nhs.uk/Id/ods-organization-code",
                                "value": "R0A"
                            }
                        },
                        "type": {
                            "coding": [
                                {
                                    "code": "PLAC",
                                    "system": "http://terminology.hl7.org/CodeSystem/v2-0203"
                                }
                            ]
                        },
                        "value": "LRI-1601716017"
                    }
                ],
                "intent": "order",
                "requester": {
                    "display": "Manchester University NHS Foundation Trust",
                    "identifier": {
                        "system": "https://fhir.nhs.uk/Id/ods-organization-code",
                        "value": "R0A"
                    },
                    "type": "Organization"
                },
                "status": "active",
                "subject": {
                    "identifier": {
                        "system": "https://fhir.nhs.uk/Id/nhs-number",
                        "type": {
                            "coding": [
                                {
                                    "code": "NH",
                                    "system": "http://terminology.hl7.org/CodeSystem/v2-0203"
                                }
                            ]
                        },
                        "value": "9737383281"
                    },
                    "reference": "urn:uuid:715a5ee9-7db2-452f-8412-8e107197b07e"
                }
            }
        },
        {
            "fullUrl": "urn:uuid:e6abaa02-e6f5-460b-a486-4cccec7905f6",
            "resource": {
                "resourceType": "DiagnosticReport",
                "basedOn": [
                    {
                        "identifier": {
                            "assigner": {
                                "identifier": {
                                    "system": "https://fhir.nhs.uk/Id/ods-organization-code",
                                    "value": "R0A"
                                }
                            },
                            "type": {
                                "coding": [
                                    {
                                        "code": "PLAC",
                                        "system": "http://terminology.hl7.org/CodeSystem/v2-0203"
                                    }
                                ]
                            },
                            "value": "LRI-1601716017"
                        },
                        "reference": "urn:uuid:fe81e583-ad5a-4a11-8b41-edb99bbf132b",
                        "type": "ServiceRequest"
                    }
                ],
                "category": [
                    {
                        "coding": [
                            {
                                "code": "GE",
                                "system": "http://terminology.hl7.org/CodeSystem/v2-0074"
                            }
                        ]
                    }
                ],
                "code": {
                    "coding": [
                        {
                            "code": "42318-6",
                            "display": "GALT gene targeted mutation analysis",
                            "system": "http://loinc.org"
                        }
                    ]
                },
                "effectiveDateTime": "2016-08-09T16:50:00+00:00",
                "extension": [
                    {
                        "extension": [
                            {
                                "url": "reference",
                                "valueReference": {
                                    "display": "Genetic report",
                                    "reference": "urn:uuid:03d60d89-da75-4708-8f27-cc6b2b696658",
                                    "type": "DocumentReference"
                                }
                            },
                            {
                                "url": "type",
                                "valueCodeableConcept": {
                                    "coding": [
                                        {
                                            "code": "SCI",
                                            "system": "http://hl7.org/fhir/diagnosticreport-relevant-information-types"
                                        }
                                    ]
                                }
                            }
                        ],
                        "url": "http://hl7.org/fhir/5.0/StructureDefinition/extension-DiagnosticReport.supportingInfo"
                    }
                ],
                "identifier": [
                    {
                        "assigner": {
                            "identifier": {
                                "system": "https://fhir.nhs.uk/Id/ods-organization-code",
                                "value": "699X0"
                            }
                        },
                        "system": "https://fhir.nwgenomics.nhs.uk/iGene/ReportIdentifier",
                        "type": {
                            "coding": [
                                {
                                    "code": "FILL",
                                    "system": "http://terminology.hl7.org/CodeSystem/v2-0203"
                                }
                            ]
                        },
                        "value": "Gen825750"
                    }
                ],
                "performer": [
                    {
                        "display": "NHS North West Genomics",
                        "identifier": {
                            "system": "https://fhir.nhs.uk/Id/ods-organization-code",
                            "value": "699X0"
                        },
                        "type": "Organization"
                    }
                ],
                "presentedForm": [
                    {
                        "contentType": "application/pdf",
                        "url": "urn:uuid:6a30d156-93f2-4a7b-9242-1f2de6df247a"
                    }
                ],
                "result": [
                    {
                        "display": "Reason for study",
                        "reference": "urn:uuid:9e6463b5-0718-4b94-b181-9bb9818488f4",
                        "type": "Observation"
                    },
                    {
                        "display": "Genetic disease(s) assessed",
                        "reference": "urn:uuid:5605c6a1-6528-4a28-a5d3-23ecc13b9be8",
                        "type": "Observation"
                    },
                    {
                        "display": "Transcript reference sequence [Identifier]",
                        "reference": "urn:uuid:77e27ee9-9b64-4bdf-9aa3-36867450aa1c",
                        "type": "Observation"
                    },
                    {
                        "display": "Gene studied [ID]",
                        "reference": "urn:uuid:05609988-0372-4cdb-9335-67941aab232a",
                        "type": "Observation"
                    },
                    {
                        "display": "Gene mutations tested",
                        "reference": "urn:uuid:e34666fd-b48c-4992-8427-7521c116ab94",
                        "type": "Observation"
                    },
                    {
                        "display": "Gene mutations tested",
                        "reference": "urn:uuid:7dd10795-7761-455b-a914-0cda8b2dfde0",
                        "type": "Observation"
                    },
                    {
                        "display": "Gene mutations tested",
                        "reference": "urn:uuid:2986bd78-71e1-447a-a6c2-de807140f33d",
                        "type": "Observation"
                    },
                    {
                        "display": "Discrete variation analysis overall interpretation",
                        "reference": "urn:uuid:81cffc34-009d-4647-9b92-2fca884d8258",
                        "type": "Observation"
                    },
                    {
                        "display": "Human reference sequence assembly",
                        "reference": "urn:uuid:24b43ca3-4a64-44d5-b5be-6bde73ca5171",
                        "type": "Observation"
                    },
                    {
                        "display": "dbSNP version",
                        "reference": "urn:uuid:8864101c-314e-4a9a-a6da-f3f564e07676",
                        "type": "Observation"
                    },
                    {
                        "display": "Variant Category",
                        "reference": "urn:uuid:bf120779-309d-4289-9a71-37f856dc2d2f",
                        "type": "Observation"
                    },
                    {
                        "display": "Discrete genetic variant",
                        "reference": "urn:uuid:d1ed5824-bfa8-4d15-bd6a-2398f18339da",
                        "type": "Observation"
                    },
                    {
                        "display": "Gene studied",
                        "reference": "urn:uuid:8fcbc373-7c7b-4c04-b7d3-fc584ddcb18d",
                        "type": "Observation"
                    },
                    {
                        "display": "Transcript RefSeq ID",
                        "reference": "urn:uuid:1ae29b22-1612-4798-80aa-ef919b13060b",
                        "type": "Observation"
                    },
                    {
                        "display": "Transcript DNA Change (cHGVS)",
                        "reference": "urn:uuid:4de424f7-d2f9-44ea-81b2-6abd6c2076a9",
                        "type": "Observation"
                    },
                    {
                        "display": "Amino acid change p.HGVS",
                        "reference": "urn:uuid:2f47f7d5-0f24-41a1-98f9-21c635f79e30",
                        "type": "Observation"
                    },
                    {
                        "display": "DNA change type",
                        "reference": "urn:uuid:b8b74170-096c-4a11-8138-03c6f5ac6eb6",
                        "type": "Observation"
                    },
                    {
                        "display": "Amino Acid change type",
                        "reference": "urn:uuid:5a38ecb4-cd15-4f67-b222-311cb6b59cab",
                        "type": "Observation"
                    },
                    {
                        "display": "Genomic reference sequence",
                        "reference": "urn:uuid:46ddcb71-283e-4e57-a42a-10f51fc29412",
                        "type": "Observation"
                    },
                    {
                        "display": "Genomic DNA change(gHGVS)",
                        "reference": "urn:uuid:0bd4a47b-d27b-410a-b11f-080bd862f9ab",
                        "type": "Observation"
                    },
                    {
                        "display": "Genomic ref allele",
                        "reference": "urn:uuid:58ba7844-b1da-497d-b5a1-27e7d47f50f4",
                        "type": "Observation"
                    },
                    {
                        "display": "Genomic allele start-end",
                        "reference": "urn:uuid:4d1a2f34-0980-4244-b8ba-e502a0dff42a",
                        "type": "Observation"
                    },
                    {
                        "display": "Genomic alt allele",
                        "reference": "urn:uuid:4e0d9697-6b8e-40b2-9e4b-f520ad4a63dd",
                        "type": "Observation"
                    },
                    {
                        "display": "dbSNP ID",
                        "reference": "urn:uuid:5cc9aea6-fff8-46ac-a4cb-dc7ab0747d03",
                        "type": "Observation"
                    },
                    {
                        "display": "Cytogenetic (chromosome) location",
                        "reference": "urn:uuid:c18e9bca-b6ff-4da7-854c-db072b80b40c",
                        "type": "Observation"
                    },
                    {
                        "display": "Genomic source class",
                        "reference": "urn:uuid:37004bbe-8dbc-427e-bf73-a4a7832ae97c",
                        "type": "Observation"
                    },
                    {
                        "display": "Variant analysis method type",
                        "reference": "urn:uuid:6993323c-cb4d-42e8-9731-f1bebdfb1b44",
                        "type": "Observation"
                    },
                    {
                        "display": "Genetic variation clinical significance",
                        "reference": "urn:uuid:a17d4c24-b01e-4292-aaca-99a41b2f354c",
                        "type": "Observation"
                    },
                    {
                        "display": "Genetic variant assessment",
                        "reference": "urn:uuid:cb754430-c39d-42ce-9857-729cbe167cbd",
                        "type": "Observation"
                    },
                    {
                        "display": "Probable associated phenotype",
                        "reference": "urn:uuid:f22181e2-e977-46b6-b65a-a038720c0cc8",
                        "type": "Observation"
                    },
                    {
                        "display": "Allelic state",
                        "reference": "urn:uuid:aa088315-bc55-4ccf-9baf-570ac8451018",
                        "type": "Observation"
                    }
                ],
                "status": "unknown",
                "subject": {
                    "identifier": {
                        "system": "https://fhir.nhs.uk/Id/nhs-number",
                        "type": {
                            "coding": [
                                {
                                    "code": "NH",
                                    "system": "http://terminology.hl7.org/CodeSystem/v2-0203"
                                }
                            ]
                        },
                        "value": "9737383281"
                    },
                    "reference": "urn:uuid:715a5ee9-7db2-452f-8412-8e107197b07e"
                }
            }
        }
    ],
    "identifier": {
        "value": "ORIE-251014-9"
    },
    "timestamp": "2025-10-14T15:59:42+00:00",
    "type": "message"
}