{
    "resourceType": "Bundle",
    "entry": [
        {
            "fullUrl": "urn:uuid:e8a90412-a93d-4fa4-95e1-5f0c7d92d7e3",
            "resource": {
                "resourceType": "MessageHeader",
                "destination": [
                    {
                        "endpoint": "https//fhir.mft.nhs.uk/Endpoint/cymru.nhs.uk",
                        "receiver": {
                            "identifier": {
                                "system": "https://fhir.nhs.uk/Id/ods-organization-code",
                                "value": "NHSWales"
                            }
                        }
                    }
                ],
                "eventCoding": {
                    "code": "T02",
                    "system": "http://terminology.hl7.org/CodeSystem/v2-0003"
                },
                "focus": [
                    {
                        "reference": "urn:uuid:cc337192-309d-41ba-b33f-7c59a6d881fc"
                    },
                    {
                        "reference": "urn:uuid:5fc6ec7d-ae0c-4f88-af38-a69231f5e9bb"
                    },
                    {
                        "reference": "urn:uuid:751ef22d-604a-4e4e-a18c-5791a2df11ed"
                    },
                    {
                        "reference": "urn:uuid:1a73fba0-8c92-4ca0-be21-98399f7bba20"
                    },
                    {
                        "reference": "urn:uuid:d74fa9c1-b493-419a-9699-27c43c64ec50"
                    }
                ],
                "sender": {
                    "identifier": {
                        "system": "https://fhir.nhs.uk/Id/ods-organization-code",
                        "value": "CAV"
                    }
                },
                "source": {
                    "endpoint": "https://fhir.nwgenomics.nhs.uk/Endpoint/ACMELab",
                    "software": "NW GLH"
                }
            }
        },
        {
            "fullUrl": "urn:uuid:d8d81cfb-abbd-4cb1-b8ca-61963e5cd723",
            "resource": {
                "resourceType": "Patient",
                "address": [
                    {
                        "city": "Baglan",
                        "district": "Neath port talbot",
                        "line": [
                            "A B M U Health Board",
                            "One Talbot Gateway"
                        ],
                        "postalCode": "SA12 7BR"
                    }
                ],
                "birthDate": "1999-10-13",
                "gender": "male",
                "identifier": [
                    {
                        "assigner": {
                            "identifier": {
                                "system": "https://fhir.nhs.uk/Id/ods-organization-code",
                                "value": "7A4"
                            }
                        },
                        "type": {
                            "coding": [
                                {
                                    "code": "PI",
                                    "system": "http://terminology.hl7.org/CodeSystem/v2-0203"
                                }
                            ]
                        },
                        "value": "403281375"
                    },
                    {
                        "assigner": {
                            "identifier": {
                                "system": "https://fhir.nhs.uk/Id/ods-organization-code",
                                "value": "X24"
                            }
                        },
                        "system": "https://fhir.nhs.uk/Id/nhs-number",
                        "type": {
                            "coding": [
                                {
                                    "code": "NH",
                                    "system": "http://terminology.hl7.org/CodeSystem/v2-0203"
                                }
                            ]
                        },
                        "value": "9737383257"
                    }
                ],
                "name": [
                    {
                        "family": "WREXHAM",
                        "given": [
                            "Myrcella"
                        ],
                        "prefix": [
                            "Mr"
                        ]
                    }
                ]
            }
        },
        {
            "fullUrl": "urn:uuid:e8a3cff7-088d-4e6b-b2ec-8eb0e81be5b1",
            "resource": {
                "resourceType": "Observation",
                "code": {
                    "coding": [
                        {
                            "code": "B3553",
                            "display": "HbA1c (IFCC traceable)"
                        }
                    ]
                },
                "effectiveDateTime": "2018-03-09T15:00:00+00:00",
                "identifier": [
                    {
                        "type": {
                            "coding": [
                                {
                                    "code": "FILL",
                                    "system": "http://terminology.hl7.org/CodeSystem/v2-0203"
                                }
                            ]
                        },
                        "value": "914694928301"
                    }
                ],
                "performer": [
                    {
                        "identifier": {
                            "system": "https://fhir.nhs.uk/Id/ods-organization-code",
                            "value": "699X0"
                        },
                        "type": "Organization"
                    }
                ],
                "referenceRange": [
                    {
                        "text": "<48"
                    }
                ],
                "status": "final",
                "subject": {
                    "identifier": {
                        "assigner": {
                            "identifier": {
                                "system": "https://fhir.nhs.uk/Id/ods-organization-code",
                                "value": "X24"
                            }
                        },
                        "system": "https://fhir.nhs.uk/Id/nhs-number",
                        "type": {
                            "coding": [
                                {
                                    "code": "NH",
                                    "system": "http://terminology.hl7.org/CodeSystem/v2-0203"
                                }
                            ]
                        },
                        "value": "9737383257"
                    },
                    "reference": "urn:uuid:d8d81cfb-abbd-4cb1-b8ca-61963e5cd723"
                },
                "valueQuantity": {
                    "system": "http://unitsofmeasure.org",
                    "unit": "mmol/mol",
                    "value": 49
                }
            }
        },
        {
            "fullUrl": "urn:uuid:ce5bc5fa-2ba0-4005-b629-c992f65aad77",
            "resource": {
                "resourceType": "Specimen",
                "identifier": [
                    {
                        "type": {
                            "coding": [
                                {
                                    "code": "PLAC",
                                    "system": "http://terminology.hl7.org/CodeSystem/v2-0203"
                                }
                            ]
                        },
                        "value": "914694928301"
                    }
                ],
                "receivedTime": "2018-03-09T15:00:00+00:00",
                "status": "unavailable",
                "subject": {
                    "identifier": {
                        "assigner": {
                            "identifier": {
                                "system": "https://fhir.nhs.uk/Id/ods-organization-code",
                                "value": "X24"
                            }
                        },
                        "system": "https://fhir.nhs.uk/Id/nhs-number",
                        "type": {
                            "coding": [
                                {
                                    "code": "NH",
                                    "system": "http://terminology.hl7.org/CodeSystem/v2-0203"
                                }
                            ]
                        },
                        "value": "9737383257"
                    },
                    "reference": "urn:uuid:d8d81cfb-abbd-4cb1-b8ca-61963e5cd723"
                }
            }
        },
        {
            "fullUrl": "urn:uuid:ce7ae7ec-b03a-4547-9488-5b905fee954e",
            "resource": {
                "resourceType": "ServiceRequest",
                "category": [
                    {
                        "coding": [
                            {
                                "code": "116148004",
                                "system": "http://snomed.info/sct"
                            }
                        ]
                    }
                ],
                "code": {
                    "coding": [
                        {
                            "code": "B3051",
                            "display": "HbA1c (IFCC traceable)"
                        }
                    ]
                },
                "identifier": [
                    {
                        "type": {
                            "coding": [
                                {
                                    "code": "FILL",
                                    "system": "http://terminology.hl7.org/CodeSystem/v2-0203"
                                }
                            ]
                        },
                        "value": "914694928301"
                    }
                ],
                "intent": "order",
                "specimen": [
                    {
                        "reference": "urn:uuid:ce5bc5fa-2ba0-4005-b629-c992f65aad77",
                        "type": "Specimen"
                    }
                ],
                "status": "completed",
                "subject": {
                    "identifier": {
                        "assigner": {
                            "identifier": {
                                "system": "https://fhir.nhs.uk/Id/ods-organization-code",
                                "value": "X24"
                            }
                        },
                        "system": "https://fhir.nhs.uk/Id/nhs-number",
                        "type": {
                            "coding": [
                                {
                                    "code": "NH",
                                    "system": "http://terminology.hl7.org/CodeSystem/v2-0203"
                                }
                            ]
                        },
                        "value": "9737383257"
                    },
                    "reference": "urn:uuid:d8d81cfb-abbd-4cb1-b8ca-61963e5cd723"
                }
            }
        },
        {
            "fullUrl": "urn:uuid:cc337192-309d-41ba-b33f-7c59a6d881fc",
            "resource": {
                "resourceType": "DiagnosticReport",
                "basedOn": [
                    {
                        "identifier": {
                            "type": {
                                "coding": [
                                    {
                                        "code": "FILL",
                                        "system": "http://terminology.hl7.org/CodeSystem/v2-0203"
                                    }
                                ]
                            },
                            "value": "914694928301"
                        },
                        "reference": "urn:uuid:ce7ae7ec-b03a-4547-9488-5b905fee954e",
                        "type": "ServiceRequest"
                    }
                ],
                "category": [
                    {
                        "coding": [
                            {
                                "code": "GE",
                                "system": "http://terminology.hl7.org/CodeSystem/v2-0074"
                            }
                        ]
                    }
                ],
                "code": {
                    "coding": [
                        {
                            "code": "B3051",
                            "display": "HbA1c (IFCC traceable)"
                        }
                    ]
                },
                "effectiveDateTime": "2018-03-09T15:00:00+00:00",
                "identifier": [
                    {
                        "type": {
                            "coding": [
                                {
                                    "code": "FILL",
                                    "system": "http://terminology.hl7.org/CodeSystem/v2-0203"
                                }
                            ]
                        },
                        "value": "914694928301"
                    }
                ],
                "issued": "2018-03-09T15:00:00+00:00",
                "performer": [
                    {
                        "display": "NHS North West Genomics",
                        "identifier": {
                            "system": "https://fhir.nhs.uk/Id/ods-organization-code",
                            "value": "699X0"
                        },
                        "type": "Organization"
                    }
                ],
                "result": [
                    {
                        "display": "HbA1c (IFCC traceable)",
                        "reference": "urn:uuid:e8a3cff7-088d-4e6b-b2ec-8eb0e81be5b1",
                        "type": "Observation"
                    }
                ],
                "specimen": [
                    {
                        "reference": "urn:uuid:ce5bc5fa-2ba0-4005-b629-c992f65aad77",
                        "type": "Specimen"
                    }
                ],
                "status": "final",
                "subject": {
                    "identifier": {
                        "assigner": {
                            "identifier": {
                                "system": "https://fhir.nhs.uk/Id/ods-organization-code",
                                "value": "X24"
                            }
                        },
                        "system": "https://fhir.nhs.uk/Id/nhs-number",
                        "type": {
                            "coding": [
                                {
                                    "code": "NH",
                                    "system": "http://terminology.hl7.org/CodeSystem/v2-0203"
                                }
                            ]
                        },
                        "value": "9737383257"
                    },
                    "reference": "urn:uuid:d8d81cfb-abbd-4cb1-b8ca-61963e5cd723"
                }
            }
        },
        {
            "fullUrl": "urn:uuid:f7a99464-557d-47a9-8528-aa53d83c3b22",
            "resource": {
                "resourceType": "Observation",
                "code": {
                    "coding": [
                        {
                            "code": "B0300",
                            "display": "White blood cell (WBC) count"
                        }
                    ]
                },
                "effectiveDateTime": "2018-03-09T15:00:00+00:00",
                "identifier": [
                    {
                        "type": {
                            "coding": [
                                {
                                    "code": "FILL",
                                    "system": "http://terminology.hl7.org/CodeSystem/v2-0203"
                                }
                            ]
                        },
                        "value": "914694928301"
                    }
                ],
                "performer": [
                    {
                        "identifier": {
                            "system": "https://fhir.nhs.uk/Id/ods-organization-code",
                            "value": "699X0"
                        },
                        "type": "Organization"
                    }
                ],
                "referenceRange": [
                    {
                        "text": "4.0-11.0"
                    }
                ],
                "status": "final",
                "subject": {
                    "identifier": {
                        "assigner": {
                            "identifier": {
                                "system": "https://fhir.nhs.uk/Id/ods-organization-code",
                                "value": "X24"
                            }
                        },
                        "system": "https://fhir.nhs.uk/Id/nhs-number",
                        "type": {
                            "coding": [
                                {
                                    "code": "NH",
                                    "system": "http://terminology.hl7.org/CodeSystem/v2-0203"
                                }
                            ]
                        },
                        "value": "9737383257"
                    },
                    "reference": "urn:uuid:d8d81cfb-abbd-4cb1-b8ca-61963e5cd723"
                },
                "valueQuantity": {
                    "system": "http://unitsofmeasure.org",
                    "unit": "x10\\S\\9/L",
                    "value": 3.5
                }
            }
        },
        {
            "fullUrl": "urn:uuid:28e60d87-310c-423c-90c4-4d8117f10be2",
            "resource": {
                "resourceType": "Observation",
                "code": {
                    "coding": [
                        {
                            "code": "B0307",
                            "display": "Haemoglobin (Hb)"
                        }
                    ]
                },
                "effectiveDateTime": "2018-03-09T15:00:00+00:00",
                "identifier": [
                    {
                        "type": {
                            "coding": [
                                {
                                    "code": "FILL",
                                    "system": "http://terminology.hl7.org/CodeSystem/v2-0203"
                                }
                            ]
                        },
                        "value": "914694928301"
                    }
                ],
                "performer": [
                    {
                        "identifier": {
                            "system": "https://fhir.nhs.uk/Id/ods-organization-code",
                            "value": "699X0"
                        },
                        "type": "Organization"
                    }
                ],
                "referenceRange": [
                    {
                        "text": "130-180"
                    }
                ],
                "status": "final",
                "subject": {
                    "identifier": {
                        "assigner": {
                            "identifier": {
                                "system": "https://fhir.nhs.uk/Id/ods-organization-code",
                                "value": "X24"
                            }
                        },
                        "system": "https://fhir.nhs.uk/Id/nhs-number",
                        "type": {
                            "coding": [
                                {
                                    "code": "NH",
                                    "system": "http://terminology.hl7.org/CodeSystem/v2-0203"
                                }
                            ]
                        },
                        "value": "9737383257"
                    },
                    "reference": "urn:uuid:d8d81cfb-abbd-4cb1-b8ca-61963e5cd723"
                },
                "valueQuantity": {
                    "comparator": "<",
                    "system": "http://unitsofmeasure.org",
                    "unit": "g/L",
                    "value": 149
                }
            }
        },
        {
            "fullUrl": "urn:uuid:f368c479-e3db-4725-a721-d27f87e17973",
            "resource": {
                "resourceType": "Observation",
                "code": {
                    "coding": [
                        {
                            "code": "B0314",
                            "display": "Platelet (PLT) count"
                        }
                    ]
                },
                "effectiveDateTime": "2018-03-09T15:00:00+00:00",
                "identifier": [
                    {
                        "type": {
                            "coding": [
                                {
                                    "code": "FILL",
                                    "system": "http://terminology.hl7.org/CodeSystem/v2-0203"
                                }
                            ]
                        },
                        "value": "914694928301"
                    }
                ],
                "performer": [
                    {
                        "identifier": {
                            "system": "https://fhir.nhs.uk/Id/ods-organization-code",
                            "value": "699X0"
                        },
                        "type": "Organization"
                    }
                ],
                "referenceRange": [
                    {
                        "text": "150-400"
                    }
                ],
                "status": "final",
                "subject": {
                    "identifier": {
                        "assigner": {
                            "identifier": {
                                "system": "https://fhir.nhs.uk/Id/ods-organization-code",
                                "value": "X24"
                            }
                        },
                        "system": "https://fhir.nhs.uk/Id/nhs-number",
                        "type": {
                            "coding": [
                                {
                                    "code": "NH",
                                    "system": "http://terminology.hl7.org/CodeSystem/v2-0203"
                                }
                            ]
                        },
                        "value": "9737383257"
                    },
                    "reference": "urn:uuid:d8d81cfb-abbd-4cb1-b8ca-61963e5cd723"
                },
                "valueQuantity": {
                    "system": "http://unitsofmeasure.org",
                    "unit": "x10\\S\\9/L",
                    "value": 500
                }
            }
        },
        {
            "fullUrl": "urn:uuid:c22a4175-2c7a-412a-8e4c-41c4a07dae9f",
            "resource": {
                "resourceType": "Observation",
                "code": {
                    "coding": [
                        {
                            "code": "B0306",
                            "display": "Red blood cell (RBC) count"
                        }
                    ]
                },
                "effectiveDateTime": "2018-03-09T15:00:00+00:00",
                "identifier": [
                    {
                        "type": {
                            "coding": [
                                {
                                    "code": "FILL",
                                    "system": "http://terminology.hl7.org/CodeSystem/v2-0203"
                                }
                            ]
                        },
                        "value": "914694928301"
                    }
                ],
                "performer": [
                    {
                        "identifier": {
                            "system": "https://fhir.nhs.uk/Id/ods-organization-code",
                            "value": "699X0"
                        },
                        "type": "Organization"
                    }
                ],
                "referenceRange": [
                    {
                        "text": "4.50-6.00"
                    }
                ],
                "status": "final",
                "subject": {
                    "identifier": {
                        "assigner": {
                            "identifier": {
                                "system": "https://fhir.nhs.uk/Id/ods-organization-code",
                                "value": "X24"
                            }
                        },
                        "system": "https://fhir.nhs.uk/Id/nhs-number",
                        "type": {
                            "coding": [
                                {
                                    "code": "NH",
                                    "system": "http://terminology.hl7.org/CodeSystem/v2-0203"
                                }
                            ]
                        },
                        "value": "9737383257"
                    },
                    "reference": "urn:uuid:d8d81cfb-abbd-4cb1-b8ca-61963e5cd723"
                },
                "valueQuantity": {
                    "system": "http://unitsofmeasure.org",
                    "unit": "x10\\S\\12/L",
                    "value": 6.0
                }
            }
        },
        {
            "fullUrl": "urn:uuid:4610973a-d583-4563-8695-be4526940b94",
            "resource": {
                "resourceType": "Observation",
                "code": {
                    "coding": [
                        {
                            "code": "B0309",
                            "display": "Mean cell volume (MCV)"
                        }
                    ]
                },
                "effectiveDateTime": "2018-03-09T15:00:00+00:00",
                "identifier": [
                    {
                        "type": {
                            "coding": [
                                {
                                    "code": "FILL",
                                    "system": "http://terminology.hl7.org/CodeSystem/v2-0203"
                                }
                            ]
                        },
                        "value": "914694928301"
                    }
                ],
                "performer": [
                    {
                        "identifier": {
                            "system": "https://fhir.nhs.uk/Id/ods-organization-code",
                            "value": "699X0"
                        },
                        "type": "Organization"
                    }
                ],
                "referenceRange": [
                    {
                        "text": "80-100"
                    }
                ],
                "status": "final",
                "subject": {
                    "identifier": {
                        "assigner": {
                            "identifier": {
                                "system": "https://fhir.nhs.uk/Id/ods-organization-code",
                                "value": "X24"
                            }
                        },
                        "system": "https://fhir.nhs.uk/Id/nhs-number",
                        "type": {
                            "coding": [
                                {
                                    "code": "NH",
                                    "system": "http://terminology.hl7.org/CodeSystem/v2-0203"
                                }
                            ]
                        },
                        "value": "9737383257"
                    },
                    "reference": "urn:uuid:d8d81cfb-abbd-4cb1-b8ca-61963e5cd723"
                },
                "valueCodeableConcept": {
                    "coding": [
                        {
                            "code": "NA",
                            "display": "Not assayed",
                            "system": "ACME"
                        }
                    ]
                }
            }
        },
        {
            "fullUrl": "urn:uuid:36a74fad-c3b0-4825-92fc-40ab03a1bbf1",
            "resource": {
                "resourceType": "Specimen",
                "collection": {
                    "collectedDateTime": "2018-03-09T14:00:00+00:00"
                },
                "identifier": [
                    {
                        "type": {
                            "coding": [
                                {
                                    "code": "FILL",
                                    "system": "http://terminology.hl7.org/CodeSystem/v2-0203"
                                }
                            ]
                        },
                        "value": "9146949283"
                    }
                ],
                "receivedTime": "2018-03-09T15:00:00+00:00",
                "status": "unavailable",
                "subject": {
                    "identifier": {
                        "assigner": {
                            "identifier": {
                                "system": "https://fhir.nhs.uk/Id/ods-organization-code",
                                "value": "X24"
                            }
                        },
                        "system": "https://fhir.nhs.uk/Id/nhs-number",
                        "type": {
                            "coding": [
                                {
                                    "code": "NH",
                                    "system": "http://terminology.hl7.org/CodeSystem/v2-0203"
                                }
                            ]
                        },
                        "value": "9737383257"
                    },
                    "reference": "urn:uuid:d8d81cfb-abbd-4cb1-b8ca-61963e5cd723"
                },
                "type": {
                    "coding": [
                        {
                            "code": "BLOO",
                            "display": "Blood",
                            "system": "ACME"
                        }
                    ]
                }
            }
        },
        {
            "fullUrl": "urn:uuid:5fc6ec7d-ae0c-4f88-af38-a69231f5e9bb",
            "resource": {
                "resourceType": "DiagnosticReport",
                "category": [
                    {
                        "coding": [
                            {
                                "code": "GE",
                                "system": "http://terminology.hl7.org/CodeSystem/v2-0074"
                            }
                        ]
                    }
                ],
                "code": {
                    "coding": [
                        {
                            "code": "B0001",
                            "display": "Full blood count"
                        }
                    ]
                },
                "effectiveDateTime": "2018-03-09T15:00:00+00:00",
                "identifier": [
                    {
                        "type": {
                            "coding": [
                                {
                                    "code": "FILL",
                                    "system": "http://terminology.hl7.org/CodeSystem/v2-0203"
                                }
                            ]
                        },
                        "value": "914694928301"
                    }
                ],
                "issued": "2018-03-09T15:00:00+00:00",
                "performer": [
                    {
                        "display": "NHS North West Genomics",
                        "identifier": {
                            "system": "https://fhir.nhs.uk/Id/ods-organization-code",
                            "value": "699X0"
                        },
                        "type": "Organization"
                    }
                ],
                "result": [
                    {
                        "display": "White blood cell (WBC) count",
                        "reference": "urn:uuid:f7a99464-557d-47a9-8528-aa53d83c3b22",
                        "type": "Observation"
                    },
                    {
                        "display": "Haemoglobin (Hb)",
                        "reference": "urn:uuid:28e60d87-310c-423c-90c4-4d8117f10be2",
                        "type": "Observation"
                    },
                    {
                        "display": "Platelet (PLT) count",
                        "reference": "urn:uuid:f368c479-e3db-4725-a721-d27f87e17973",
                        "type": "Observation"
                    },
                    {
                        "display": "Red blood cell (RBC) count",
                        "reference": "urn:uuid:c22a4175-2c7a-412a-8e4c-41c4a07dae9f",
                        "type": "Observation"
                    },
                    {
                        "display": "Mean cell volume (MCV)",
                        "reference": "urn:uuid:4610973a-d583-4563-8695-be4526940b94",
                        "type": "Observation"
                    }
                ],
                "specimen": [
                    {
                        "reference": "urn:uuid:36a74fad-c3b0-4825-92fc-40ab03a1bbf1",
                        "type": "Specimen"
                    }
                ],
                "status": "final",
                "subject": {
                    "identifier": {
                        "assigner": {
                            "identifier": {
                                "system": "https://fhir.nhs.uk/Id/ods-organization-code",
                                "value": "X24"
                            }
                        },
                        "system": "https://fhir.nhs.uk/Id/nhs-number",
                        "type": {
                            "coding": [
                                {
                                    "code": "NH",
                                    "system": "http://terminology.hl7.org/CodeSystem/v2-0203"
                                }
                            ]
                        },
                        "value": "9737383257"
                    },
                    "reference": "urn:uuid:d8d81cfb-abbd-4cb1-b8ca-61963e5cd723"
                }
            }
        },
        {
            "fullUrl": "urn:uuid:a1747ef9-f29d-4573-8051-e579ebe5b536",
            "resource": {
                "resourceType": "Binary",
                "contentType": "application/pdf",
                "data": "JVBERi0xLjQKJcOkw7zDtsOfCjIgMCBvYmoKPDw...EyNDk0IDAwMDAwIG4gCnRyYWlsZXIKPDwvU2l6ZS"
            }
        },
        {
            "fullUrl": "urn:uuid:9c91aa98-25f6-465e-a8ee-479b9939d43a",
            "resource": {
                "resourceType": "DocumentReference",
                "content": [
                    {
                        "attachment": {
                            "contentType": "application/pdf",
                            "url": "urn:uuid:a1747ef9-f29d-4573-8051-e579ebe5b536"
                        }
                    }
                ],
                "context": {
                    "period": {
                        "end": "2018-11-09T12:38:51+00:00",
                        "start": "2018-11-09T12:38:51+00:00"
                    },
                    "related": [
                        {
                            "identifier": {
                                "assigner": {
                                    "identifier": {
                                        "system": "https://fhir.nhs.uk/Id/ods-organization-code",
                                        "value": "7A4BV"
                                    }
                                },
                                "type": {
                                    "coding": [
                                        {
                                            "code": "FILL",
                                            "system": "http://terminology.hl7.org/CodeSystem/v2-0203"
                                        }
                                    ]
                                },
                                "value": "287018"
                            },
                            "reference": "urn:uuid:751ef22d-604a-4e4e-a18c-5791a2df11ed",
                            "type": "DiagnosticReport"
                        }
                    ]
                },
                "custodian": {
                    "identifier": {
                        "system": "https://fhir.nhs.uk/Id/ods-organization-code",
                        "value": "699X0"
                    },
                    "type": "Organization"
                },
                "date": "2018-11-09T12:38:51+00:00",
                "identifier": [
                    {
                        "assigner": {
                            "identifier": {
                                "system": "https://fhir.nhs.uk/Id/ods-organization-code",
                                "value": "7A4BV"
                            }
                        },
                        "type": {
                            "coding": [
                                {
                                    "code": "FILL",
                                    "system": "http://terminology.hl7.org/CodeSystem/v2-0203"
                                }
                            ]
                        },
                        "value": "287018"
                    }
                ],
                "status": "current",
                "subject": {
                    "identifier": {
                        "assigner": {
                            "identifier": {
                                "system": "https://fhir.nhs.uk/Id/ods-organization-code",
                                "value": "X24"
                            }
                        },
                        "system": "https://fhir.nhs.uk/Id/nhs-number",
                        "type": {
                            "coding": [
                                {
                                    "code": "NH",
                                    "system": "http://terminology.hl7.org/CodeSystem/v2-0203"
                                }
                            ]
                        },
                        "value": "9737383257"
                    },
                    "reference": "urn:uuid:d8d81cfb-abbd-4cb1-b8ca-61963e5cd723"
                },
                "type": {
                    "coding": [
                        {
                            "code": "CATH",
                            "display": "Cardiac Catheter Report",
                            "system": "L"
                        }
                    ]
                }
            }
        },
        {
            "fullUrl": "urn:uuid:0a26c79e-33ab-44e4-bacf-aa3aa6a708f0",
            "resource": {
                "resourceType": "Binary",
                "contentType": "application/pdf",
                "data": "AxNi9Sb290IDE0IDAgUgovSW5mbyAxNSAwIFIKL0lEIFsgPE...KPj4Kc3RhcnR4cmVmCjEyNzg3CiUlRU9GCg=="
            }
        },
        {
            "fullUrl": "urn:uuid:199aa170-adb0-4b60-a00c-e5096da4a126",
            "resource": {
                "resourceType": "DocumentReference",
                "content": [
                    {
                        "attachment": {
                            "contentType": "application/pdf",
                            "url": "urn:uuid:0a26c79e-33ab-44e4-bacf-aa3aa6a708f0"
                        }
                    }
                ],
                "context": {
                    "period": {
                        "end": "2018-11-09T12:38:51+00:00",
                        "start": "2018-11-09T12:38:51+00:00"
                    },
                    "related": [
                        {
                            "identifier": {
                                "assigner": {
                                    "identifier": {
                                        "system": "https://fhir.nhs.uk/Id/ods-organization-code",
                                        "value": "7A4BV"
                                    }
                                },
                                "type": {
                                    "coding": [
                                        {
                                            "code": "FILL",
                                            "system": "http://terminology.hl7.org/CodeSystem/v2-0203"
                                        }
                                    ]
                                },
                                "value": "287018"
                            },
                            "reference": "urn:uuid:751ef22d-604a-4e4e-a18c-5791a2df11ed",
                            "type": "DiagnosticReport"
                        }
                    ]
                },
                "custodian": {
                    "identifier": {
                        "system": "https://fhir.nhs.uk/Id/ods-organization-code",
                        "value": "699X0"
                    },
                    "type": "Organization"
                },
                "date": "2018-11-09T12:38:51+00:00",
                "identifier": [
                    {
                        "assigner": {
                            "identifier": {
                                "system": "https://fhir.nhs.uk/Id/ods-organization-code",
                                "value": "7A4BV"
                            }
                        },
                        "type": {
                            "coding": [
                                {
                                    "code": "FILL",
                                    "system": "http://terminology.hl7.org/CodeSystem/v2-0203"
                                }
                            ]
                        },
                        "value": "287018"
                    }
                ],
                "status": "current",
                "subject": {
                    "identifier": {
                        "assigner": {
                            "identifier": {
                                "system": "https://fhir.nhs.uk/Id/ods-organization-code",
                                "value": "X24"
                            }
                        },
                        "system": "https://fhir.nhs.uk/Id/nhs-number",
                        "type": {
                            "coding": [
                                {
                                    "code": "NH",
                                    "system": "http://terminology.hl7.org/CodeSystem/v2-0203"
                                }
                            ]
                        },
                        "value": "9737383257"
                    },
                    "reference": "urn:uuid:d8d81cfb-abbd-4cb1-b8ca-61963e5cd723"
                },
                "type": {
                    "coding": [
                        {
                            "code": "CATH",
                            "display": "Cardiac Catheter Report",
                            "system": "L"
                        }
                    ]
                }
            }
        },
        {
            "fullUrl": "urn:uuid:751ef22d-604a-4e4e-a18c-5791a2df11ed",
            "resource": {
                "resourceType": "DiagnosticReport",
                "category": [
                    {
                        "coding": [
                            {
                                "code": "GE",
                                "system": "http://terminology.hl7.org/CodeSystem/v2-0074"
                            }
                        ]
                    }
                ],
                "code": {
                    "coding": [
                        {
                            "code": "CATH",
                            "display": "Cardiac Catheter Report",
                            "system": "L"
                        }
                    ]
                },
                "effectiveDateTime": "2018-11-09T12:38:51+00:00",
                "identifier": [
                    {
                        "assigner": {
                            "identifier": {
                                "system": "https://fhir.nhs.uk/Id/ods-organization-code",
                                "value": "7A4BV"
                            }
                        },
                        "type": {
                            "coding": [
                                {
                                    "code": "FILL",
                                    "system": "http://terminology.hl7.org/CodeSystem/v2-0203"
                                }
                            ]
                        },
                        "value": "287018"
                    }
                ],
                "issued": "2018-11-09T12:48:18+00:00",
                "performer": [
                    {
                        "display": "NHS North West Genomics",
                        "identifier": {
                            "system": "https://fhir.nhs.uk/Id/ods-organization-code",
                            "value": "699X0"
                        },
                        "type": "Organization"
                    }
                ],
                "status": "partial",
                "subject": {
                    "identifier": {
                        "assigner": {
                            "identifier": {
                                "system": "https://fhir.nhs.uk/Id/ods-organization-code",
                                "value": "X24"
                            }
                        },
                        "system": "https://fhir.nhs.uk/Id/nhs-number",
                        "type": {
                            "coding": [
                                {
                                    "code": "NH",
                                    "system": "http://terminology.hl7.org/CodeSystem/v2-0203"
                                }
                            ]
                        },
                        "value": "9737383257"
                    },
                    "reference": "urn:uuid:d8d81cfb-abbd-4cb1-b8ca-61963e5cd723"
                }
            }
        },
        {
            "fullUrl": "urn:uuid:0bbcad53-ea6b-4a6b-ae7e-ca345cc455a2",
            "resource": {
                "resourceType": "Binary",
                "contentType": "application/pdf",
                "data": "JVBERi0xLjQKJcOkw7zDtsOfCjIgMCBvYm...VmCjEyNzg3CiUlRU9GCg=="
            }
        },
        {
            "fullUrl": "urn:uuid:c5e053e5-f132-4722-963c-eb3957fe09c8",
            "resource": {
                "resourceType": "DocumentReference",
                "content": [
                    {
                        "attachment": {
                            "contentType": "application/pdf",
                            "url": "urn:uuid:0bbcad53-ea6b-4a6b-ae7e-ca345cc455a2"
                        }
                    }
                ],
                "context": {
                    "period": {
                        "end": "2018-11-09T12:38:51+00:00",
                        "start": "2018-11-09T12:38:51+00:00"
                    },
                    "related": [
                        {
                            "identifier": {
                                "assigner": {
                                    "identifier": {
                                        "system": "https://fhir.nhs.uk/Id/ods-organization-code",
                                        "value": "7A4BV"
                                    }
                                },
                                "type": {
                                    "coding": [
                                        {
                                            "code": "FILL",
                                            "system": "http://terminology.hl7.org/CodeSystem/v2-0203"
                                        }
                                    ]
                                },
                                "value": "A28701"
                            },
                            "reference": "urn:uuid:1a73fba0-8c92-4ca0-be21-98399f7bba20",
                            "type": "DiagnosticReport"
                        }
                    ]
                },
                "custodian": {
                    "identifier": {
                        "system": "https://fhir.nhs.uk/Id/ods-organization-code",
                        "value": "699X0"
                    },
                    "type": "Organization"
                },
                "date": "2018-11-09T12:38:51+00:00",
                "identifier": [
                    {
                        "assigner": {
                            "identifier": {
                                "system": "https://fhir.nhs.uk/Id/ods-organization-code",
                                "value": "7A4BV"
                            }
                        },
                        "type": {
                            "coding": [
                                {
                                    "code": "FILL",
                                    "system": "http://terminology.hl7.org/CodeSystem/v2-0203"
                                }
                            ]
                        },
                        "value": "A28701"
                    }
                ],
                "status": "current",
                "subject": {
                    "identifier": {
                        "assigner": {
                            "identifier": {
                                "system": "https://fhir.nhs.uk/Id/ods-organization-code",
                                "value": "X24"
                            }
                        },
                        "system": "https://fhir.nhs.uk/Id/nhs-number",
                        "type": {
                            "coding": [
                                {
                                    "code": "NH",
                                    "system": "http://terminology.hl7.org/CodeSystem/v2-0203"
                                }
                            ]
                        },
                        "value": "9737383257"
                    },
                    "reference": "urn:uuid:d8d81cfb-abbd-4cb1-b8ca-61963e5cd723"
                },
                "type": {
                    "coding": [
                        {
                            "code": "Appointment",
                            "display": "Appointment Letter",
                            "system": "L"
                        }
                    ]
                }
            }
        },
        {
            "fullUrl": "urn:uuid:1a73fba0-8c92-4ca0-be21-98399f7bba20",
            "resource": {
                "resourceType": "DiagnosticReport",
                "category": [
                    {
                        "coding": [
                            {
                                "code": "GE",
                                "system": "http://terminology.hl7.org/CodeSystem/v2-0074"
                            }
                        ]
                    }
                ],
                "code": {
                    "coding": [
                        {
                            "code": "Appointment",
                            "display": "AppointmentLetter",
                            "system": "L"
                        }
                    ]
                },
                "effectiveDateTime": "2018-11-09T12:38:51+00:00",
                "identifier": [
                    {
                        "assigner": {
                            "identifier": {
                                "system": "https://fhir.nhs.uk/Id/ods-organization-code",
                                "value": "7A4BV"
                            }
                        },
                        "type": {
                            "coding": [
                                {
                                    "code": "FILL",
                                    "system": "http://terminology.hl7.org/CodeSystem/v2-0203"
                                }
                            ]
                        },
                        "value": "A28701"
                    }
                ],
                "issued": "2018-11-09T12:48:18+00:00",
                "performer": [
                    {
                        "display": "NHS North West Genomics",
                        "identifier": {
                            "system": "https://fhir.nhs.uk/Id/ods-organization-code",
                            "value": "699X0"
                        },
                        "type": "Organization"
                    }
                ],
                "status": "partial",
                "subject": {
                    "identifier": {
                        "assigner": {
                            "identifier": {
                                "system": "https://fhir.nhs.uk/Id/ods-organization-code",
                                "value": "X24"
                            }
                        },
                        "system": "https://fhir.nhs.uk/Id/nhs-number",
                        "type": {
                            "coding": [
                                {
                                    "code": "NH",
                                    "system": "http://terminology.hl7.org/CodeSystem/v2-0203"
                                }
                            ]
                        },
                        "value": "9737383257"
                    },
                    "reference": "urn:uuid:d8d81cfb-abbd-4cb1-b8ca-61963e5cd723"
                }
            }
        },
        {
            "fullUrl": "urn:uuid:50588013-e9f9-4054-a5a6-31c4491924a5",
            "resource": {
                "resourceType": "Observation",
                "code": {
                    "coding": [
                        {
                            "code": "INTER",
                            "display": "INTERPRETATION",
                            "system": "L"
                        }
                    ]
                },
                "effectiveDateTime": "2019-05-14T10:24:17+00:00",
                "identifier": [
                    {
                        "type": {
                            "coding": [
                                {
                                    "code": "FILL",
                                    "system": "http://terminology.hl7.org/CodeSystem/v2-0203"
                                }
                            ]
                        },
                        "value": "190000041:27491"
                    }
                ],
                "note": [
                    {
                        "text": "Interpreted by: ACME Super User, Signed on 05/14/2019 at 10:24\\n"
                    }
                ],
                "performer": [
                    {
                        "identifier": {
                            "system": "https://fhir.nhs.uk/Id/ods-organization-code",
                            "value": "699X0"
                        },
                        "type": "Organization"
                    }
                ],
                "status": "final",
                "subject": {
                    "identifier": {
                        "assigner": {
                            "identifier": {
                                "system": "https://fhir.nhs.uk/Id/ods-organization-code",
                                "value": "X24"
                            }
                        },
                        "system": "https://fhir.nhs.uk/Id/nhs-number",
                        "type": {
                            "coding": [
                                {
                                    "code": "NH",
                                    "system": "http://terminology.hl7.org/CodeSystem/v2-0203"
                                }
                            ]
                        },
                        "value": "9737383257"
                    },
                    "reference": "urn:uuid:d8d81cfb-abbd-4cb1-b8ca-61963e5cd723"
                },
                "valueString": "rwtu"
            }
        },
        {
            "fullUrl": "urn:uuid:06f137b5-d0aa-4646-907e-5204e2fc745a",
            "resource": {
                "resourceType": "Observation",
                "code": {
                    "coding": [
                        {
                            "code": "RESTE",
                            "display": "Reason for testing",
                            "system": "L"
                        }
                    ]
                },
                "effectiveDateTime": "2019-05-14T10:24:17+00:00",
                "identifier": [
                    {
                        "type": {
                            "coding": [
                                {
                                    "code": "FILL",
                                    "system": "http://terminology.hl7.org/CodeSystem/v2-0203"
                                }
                            ]
                        },
                        "value": "190000041:27491"
                    }
                ],
                "performer": [
                    {
                        "identifier": {
                            "system": "https://fhir.nhs.uk/Id/ods-organization-code",
                            "value": "699X0"
                        },
                        "type": "Organization"
                    }
                ],
                "status": "final",
                "subject": {
                    "identifier": {
                        "assigner": {
                            "identifier": {
                                "system": "https://fhir.nhs.uk/Id/ods-organization-code",
                                "value": "X24"
                            }
                        },
                        "system": "https://fhir.nhs.uk/Id/nhs-number",
                        "type": {
                            "coding": [
                                {
                                    "code": "NH",
                                    "system": "http://terminology.hl7.org/CodeSystem/v2-0203"
                                }
                            ]
                        },
                        "value": "9737383257"
                    },
                    "reference": "urn:uuid:d8d81cfb-abbd-4cb1-b8ca-61963e5cd723"
                },
                "valueString": "erw"
            }
        },
        {
            "fullUrl": "urn:uuid:05439025-8924-4231-8d06-4e006912e927",
            "resource": {
                "resourceType": "Observation",
                "code": {
                    "coding": [
                        {
                            "code": "TMETH",
                            "display": "Test Methodology",
                            "system": "L"
                        }
                    ]
                },
                "effectiveDateTime": "2019-05-14T10:24:17+00:00",
                "identifier": [
                    {
                        "type": {
                            "coding": [
                                {
                                    "code": "FILL",
                                    "system": "http://terminology.hl7.org/CodeSystem/v2-0203"
                                }
                            ]
                        },
                        "value": "190000041:27491"
                    }
                ],
                "performer": [
                    {
                        "identifier": {
                            "system": "https://fhir.nhs.uk/Id/ods-organization-code",
                            "value": "699X0"
                        },
                        "type": "Organization"
                    }
                ],
                "status": "final",
                "subject": {
                    "identifier": {
                        "assigner": {
                            "identifier": {
                                "system": "https://fhir.nhs.uk/Id/ods-organization-code",
                                "value": "X24"
                            }
                        },
                        "system": "https://fhir.nhs.uk/Id/nhs-number",
                        "type": {
                            "coding": [
                                {
                                    "code": "NH",
                                    "system": "http://terminology.hl7.org/CodeSystem/v2-0203"
                                }
                            ]
                        },
                        "value": "9737383257"
                    },
                    "reference": "urn:uuid:d8d81cfb-abbd-4cb1-b8ca-61963e5cd723"
                },
                "valueString": "sfjg"
            }
        },
        {
            "fullUrl": "urn:uuid:9bf3bc14-72b1-4202-ac29-ab6cc8ba22b8",
            "resource": {
                "resourceType": "Observation",
                "code": {
                    "coding": [
                        {
                            "code": "RESUM",
                            "display": "Result summary",
                            "system": "L"
                        }
                    ]
                },
                "effectiveDateTime": "2019-05-14T10:24:17+00:00",
                "identifier": [
                    {
                        "type": {
                            "coding": [
                                {
                                    "code": "FILL",
                                    "system": "http://terminology.hl7.org/CodeSystem/v2-0203"
                                }
                            ]
                        },
                        "value": "190000041:27491"
                    }
                ],
                "performer": [
                    {
                        "identifier": {
                            "system": "https://fhir.nhs.uk/Id/ods-organization-code",
                            "value": "699X0"
                        },
                        "type": "Organization"
                    }
                ],
                "status": "final",
                "subject": {
                    "identifier": {
                        "assigner": {
                            "identifier": {
                                "system": "https://fhir.nhs.uk/Id/ods-organization-code",
                                "value": "X24"
                            }
                        },
                        "system": "https://fhir.nhs.uk/Id/nhs-number",
                        "type": {
                            "coding": [
                                {
                                    "code": "NH",
                                    "system": "http://terminology.hl7.org/CodeSystem/v2-0203"
                                }
                            ]
                        },
                        "value": "9737383257"
                    },
                    "reference": "urn:uuid:d8d81cfb-abbd-4cb1-b8ca-61963e5cd723"
                },
                "valueString": "tyityu"
            }
        },
        {
            "fullUrl": "urn:uuid:127d1140-da95-4d98-9017-4ae748623cb3",
            "resource": {
                "resourceType": "Observation",
                "code": {
                    "coding": [
                        {
                            "code": "PATPH",
                            "display": "Patient phenotype",
                            "system": "L"
                        }
                    ]
                },
                "effectiveDateTime": "2019-05-14T10:24:17+00:00",
                "identifier": [
                    {
                        "type": {
                            "coding": [
                                {
                                    "code": "FILL",
                                    "system": "http://terminology.hl7.org/CodeSystem/v2-0203"
                                }
                            ]
                        },
                        "value": "190000041:27491"
                    }
                ],
                "performer": [
                    {
                        "identifier": {
                            "system": "https://fhir.nhs.uk/Id/ods-organization-code",
                            "value": "699X0"
                        },
                        "type": "Organization"
                    }
                ],
                "status": "final",
                "subject": {
                    "identifier": {
                        "assigner": {
                            "identifier": {
                                "system": "https://fhir.nhs.uk/Id/ods-organization-code",
                                "value": "X24"
                            }
                        },
                        "system": "https://fhir.nhs.uk/Id/nhs-number",
                        "type": {
                            "coding": [
                                {
                                    "code": "NH",
                                    "system": "http://terminology.hl7.org/CodeSystem/v2-0203"
                                }
                            ]
                        },
                        "value": "9737383257"
                    },
                    "reference": "urn:uuid:d8d81cfb-abbd-4cb1-b8ca-61963e5cd723"
                },
                "valueString": "ghfjg"
            }
        },
        {
            "fullUrl": "urn:uuid:38c5e11e-024d-4488-8bfe-faf52230475b",
            "resource": {
                "resourceType": "Observation",
                "code": {
                    "coding": [
                        {
                            "code": "FOLL",
                            "display": "Follow-up",
                            "system": "L"
                        }
                    ]
                },
                "effectiveDateTime": "2019-05-14T10:24:17+00:00",
                "identifier": [
                    {
                        "type": {
                            "coding": [
                                {
                                    "code": "FILL",
                                    "system": "http://terminology.hl7.org/CodeSystem/v2-0203"
                                }
                            ]
                        },
                        "value": "190000041:27491"
                    }
                ],
                "performer": [
                    {
                        "identifier": {
                            "system": "https://fhir.nhs.uk/Id/ods-organization-code",
                            "value": "699X0"
                        },
                        "type": "Organization"
                    }
                ],
                "status": "final",
                "subject": {
                    "identifier": {
                        "assigner": {
                            "identifier": {
                                "system": "https://fhir.nhs.uk/Id/ods-organization-code",
                                "value": "X24"
                            }
                        },
                        "system": "https://fhir.nhs.uk/Id/nhs-number",
                        "type": {
                            "coding": [
                                {
                                    "code": "NH",
                                    "system": "http://terminology.hl7.org/CodeSystem/v2-0203"
                                }
                            ]
                        },
                        "value": "9737383257"
                    },
                    "reference": "urn:uuid:d8d81cfb-abbd-4cb1-b8ca-61963e5cd723"
                },
                "valueString": "yue"
            }
        },
        {
            "fullUrl": "urn:uuid:ad328ef1-a04f-4025-bd1e-b84f983d9f81",
            "resource": {
                "resourceType": "Binary",
                "contentType": "application/pdf",
                "data": ""
            }
        },
        {
            "fullUrl": "urn:uuid:a4130c0f-de1e-4815-aa91-67192310719d",
            "resource": {
                "resourceType": "DocumentReference",
                "content": [
                    {
                        "attachment": {
                            "contentType": "application/pdf",
                            "url": "urn:uuid:ad328ef1-a04f-4025-bd1e-b84f983d9f81"
                        }
                    }
                ],
                "context": {
                    "period": {
                        "end": "2019-05-14T10:24:17+00:00",
                        "start": "2019-05-14T10:24:17+00:00"
                    },
                    "related": [
                        {
                            "identifier": {
                                "type": {
                                    "coding": [
                                        {
                                            "code": "FILL",
                                            "system": "http://terminology.hl7.org/CodeSystem/v2-0203"
                                        }
                                    ]
                                },
                                "value": "190000041:27491"
                            },
                            "reference": "urn:uuid:d74fa9c1-b493-419a-9699-27c43c64ec50",
                            "type": "DiagnosticReport"
                        }
                    ]
                },
                "custodian": {
                    "identifier": {
                        "system": "https://fhir.nhs.uk/Id/ods-organization-code",
                        "value": "699X0"
                    },
                    "type": "Organization"
                },
                "date": "2019-05-14T10:24:17+00:00",
                "identifier": [
                    {
                        "type": {
                            "coding": [
                                {
                                    "code": "FILL",
                                    "system": "http://terminology.hl7.org/CodeSystem/v2-0203"
                                }
                            ]
                        },
                        "value": "190000041:27491"
                    }
                ],
                "status": "current",
                "subject": {
                    "identifier": {
                        "assigner": {
                            "identifier": {
                                "system": "https://fhir.nhs.uk/Id/ods-organization-code",
                                "value": "X24"
                            }
                        },
                        "system": "https://fhir.nhs.uk/Id/nhs-number",
                        "type": {
                            "coding": [
                                {
                                    "code": "NH",
                                    "system": "http://terminology.hl7.org/CodeSystem/v2-0203"
                                }
                            ]
                        },
                        "value": "9737383257"
                    },
                    "reference": "urn:uuid:d8d81cfb-abbd-4cb1-b8ca-61963e5cd723"
                },
                "type": {
                    "coding": [
                        {
                            "code": "823781000000108",
                            "display": "MDT (multidisciplinary team) letter",
                            "system": "http://snomed.info/sct"
                        }
                    ]
                }
            }
        },
        {
            "fullUrl": "urn:uuid:9cc0186d-c553-4d8d-b004-e5a9a1640a1f",
            "resource": {
                "resourceType": "Observation",
                "code": {
                    "coding": [
                        {
                            "code": "RESLT",
                            "display": "Result",
                            "system": "L"
                        }
                    ]
                },
                "effectiveDateTime": "2019-05-14T10:24:17+00:00",
                "identifier": [
                    {
                        "type": {
                            "coding": [
                                {
                                    "code": "FILL",
                                    "system": "http://terminology.hl7.org/CodeSystem/v2-0203"
                                }
                            ]
                        },
                        "value": "190000041:27491"
                    }
                ],
                "performer": [
                    {
                        "identifier": {
                            "system": "https://fhir.nhs.uk/Id/ods-organization-code",
                            "value": "699X0"
                        },
                        "type": "Organization"
                    }
                ],
                "status": "final",
                "subject": {
                    "identifier": {
                        "assigner": {
                            "identifier": {
                                "system": "https://fhir.nhs.uk/Id/ods-organization-code",
                                "value": "X24"
                            }
                        },
                        "system": "https://fhir.nhs.uk/Id/nhs-number",
                        "type": {
                            "coding": [
                                {
                                    "code": "NH",
                                    "system": "http://terminology.hl7.org/CodeSystem/v2-0203"
                                }
                            ]
                        },
                        "value": "9737383257"
                    },
                    "reference": "urn:uuid:d8d81cfb-abbd-4cb1-b8ca-61963e5cd723"
                },
                "valueString": "dhjhd"
            }
        },
        {
            "fullUrl": "urn:uuid:444ec60b-17c9-4390-a7f1-c0555d2afb5e",
            "resource": {
                "resourceType": "Observation",
                "code": {
                    "coding": [
                        {
                            "code": "GRFALN1",
                            "display": "AlphaNumeric Generic Result Field 1",
                            "system": "L"
                        }
                    ]
                },
                "effectiveDateTime": "2019-05-14T10:23:35+00:00",
                "identifier": [
                    {
                        "type": {
                            "coding": [
                                {
                                    "code": "FILL",
                                    "system": "http://terminology.hl7.org/CodeSystem/v2-0203"
                                }
                            ]
                        },
                        "value": "190000041:27491"
                    }
                ],
                "performer": [
                    {
                        "identifier": {
                            "system": "https://fhir.nhs.uk/Id/ods-organization-code",
                            "value": "699X0"
                        },
                        "type": "Organization"
                    }
                ],
                "status": "final",
                "subject": {
                    "identifier": {
                        "assigner": {
                            "identifier": {
                                "system": "https://fhir.nhs.uk/Id/ods-organization-code",
                                "value": "X24"
                            }
                        },
                        "system": "https://fhir.nhs.uk/Id/nhs-number",
                        "type": {
                            "coding": [
                                {
                                    "code": "NH",
                                    "system": "http://terminology.hl7.org/CodeSystem/v2-0203"
                                }
                            ]
                        },
                        "value": "9737383257"
                    },
                    "reference": "urn:uuid:d8d81cfb-abbd-4cb1-b8ca-61963e5cd723"
                },
                "valueString": "234dfsgsg"
            }
        },
        {
            "fullUrl": "urn:uuid:3ca44907-7a4b-458f-9093-7416bcd9f78c",
            "resource": {
                "resourceType": "Binary",
                "contentType": "application/pdf",
                "data": "JVBERi0xLjMKJeLjz9MKMiAwIG9iago8PC..."
            }
        },
        {
            "fullUrl": "urn:uuid:094be95a-92ce-44b1-9182-8ff21397daf1",
            "resource": {
                "resourceType": "DocumentReference",
                "content": [
                    {
                        "attachment": {
                            "contentType": "application/pdf",
                            "url": "urn:uuid:3ca44907-7a4b-458f-9093-7416bcd9f78c"
                        }
                    }
                ],
                "context": {
                    "period": {
                        "end": "2019-05-14T10:23:35+00:00",
                        "start": "2019-05-14T10:23:35+00:00"
                    },
                    "related": [
                        {
                            "identifier": {
                                "type": {
                                    "coding": [
                                        {
                                            "code": "FILL",
                                            "system": "http://terminology.hl7.org/CodeSystem/v2-0203"
                                        }
                                    ]
                                },
                                "value": "190000041:27491"
                            },
                            "reference": "urn:uuid:d74fa9c1-b493-419a-9699-27c43c64ec50",
                            "type": "DiagnosticReport"
                        }
                    ]
                },
                "custodian": {
                    "identifier": {
                        "system": "https://fhir.nhs.uk/Id/ods-organization-code",
                        "value": "699X0"
                    },
                    "type": "Organization"
                },
                "date": "2019-05-14T10:23:35+00:00",
                "identifier": [
                    {
                        "type": {
                            "coding": [
                                {
                                    "code": "FILL",
                                    "system": "http://terminology.hl7.org/CodeSystem/v2-0203"
                                }
                            ]
                        },
                        "value": "190000041:27491"
                    }
                ],
                "status": "current",
                "subject": {
                    "identifier": {
                        "assigner": {
                            "identifier": {
                                "system": "https://fhir.nhs.uk/Id/ods-organization-code",
                                "value": "X24"
                            }
                        },
                        "system": "https://fhir.nhs.uk/Id/nhs-number",
                        "type": {
                            "coding": [
                                {
                                    "code": "NH",
                                    "system": "http://terminology.hl7.org/CodeSystem/v2-0203"
                                }
                            ]
                        },
                        "value": "9737383257"
                    },
                    "reference": "urn:uuid:d8d81cfb-abbd-4cb1-b8ca-61963e5cd723"
                },
                "type": {
                    "coding": [
                        {
                            "code": "MOLT",
                            "display": "MOL TEST NAME",
                            "system": "L"
                        }
                    ]
                }
            }
        },
        {
            "fullUrl": "urn:uuid:618a59d8-cace-4484-99ac-333c913c79b5",
            "resource": {
                "resourceType": "DocumentReference",
                "content": [
                    {
                        "attachment": {
                            "url": "http://documents.example.com/document123.pdf"
                        }
                    }
                ],
                "context": {
                    "period": {
                        "end": "2019-05-14T10:23:35+00:00",
                        "start": "2019-05-14T10:23:35+00:00"
                    },
                    "related": [
                        {
                            "identifier": {
                                "type": {
                                    "coding": [
                                        {
                                            "code": "FILL",
                                            "system": "http://terminology.hl7.org/CodeSystem/v2-0203"
                                        }
                                    ]
                                },
                                "value": "190000041:27491"
                            },
                            "reference": "urn:uuid:d74fa9c1-b493-419a-9699-27c43c64ec50",
                            "type": "DiagnosticReport"
                        }
                    ]
                },
                "custodian": {
                    "identifier": {
                        "system": "https://fhir.nhs.uk/Id/ods-organization-code",
                        "value": "699X0"
                    },
                    "type": "Organization"
                },
                "date": "2019-05-14T10:23:35+00:00",
                "identifier": [
                    {
                        "type": {
                            "coding": [
                                {
                                    "code": "FILL",
                                    "system": "http://terminology.hl7.org/CodeSystem/v2-0203"
                                }
                            ]
                        },
                        "value": "190000041:27491"
                    }
                ],
                "status": "current",
                "subject": {
                    "identifier": {
                        "assigner": {
                            "identifier": {
                                "system": "https://fhir.nhs.uk/Id/ods-organization-code",
                                "value": "X24"
                            }
                        },
                        "system": "https://fhir.nhs.uk/Id/nhs-number",
                        "type": {
                            "coding": [
                                {
                                    "code": "NH",
                                    "system": "http://terminology.hl7.org/CodeSystem/v2-0203"
                                }
                            ]
                        },
                        "value": "9737383257"
                    },
                    "reference": "urn:uuid:d8d81cfb-abbd-4cb1-b8ca-61963e5cd723"
                },
                "type": {
                    "coding": [
                        {
                            "code": "MOLT",
                            "display": "MOL TEST NAME",
                            "system": "L"
                        }
                    ]
                }
            }
        },
        {
            "fullUrl": "urn:uuid:21fe0120-89c2-47f6-8006-0f832bf72360",
            "resource": {
                "resourceType": "Specimen",
                "identifier": [
                    {
                        "type": {
                            "coding": [
                                {
                                    "code": "PLAC",
                                    "system": "http://terminology.hl7.org/CodeSystem/v2-0203"
                                }
                            ]
                        },
                        "value": "190000041:27491"
                    }
                ],
                "receivedTime": "2019-05-14T10:20:00+00:00",
                "status": "unavailable",
                "subject": {
                    "identifier": {
                        "assigner": {
                            "identifier": {
                                "system": "https://fhir.nhs.uk/Id/ods-organization-code",
                                "value": "X24"
                            }
                        },
                        "system": "https://fhir.nhs.uk/Id/nhs-number",
                        "type": {
                            "coding": [
                                {
                                    "code": "NH",
                                    "system": "http://terminology.hl7.org/CodeSystem/v2-0203"
                                }
                            ]
                        },
                        "value": "9737383257"
                    },
                    "reference": "urn:uuid:d8d81cfb-abbd-4cb1-b8ca-61963e5cd723"
                }
            }
        },
        {
            "fullUrl": "urn:uuid:d74fa9c1-b493-419a-9699-27c43c64ec50",
            "resource": {
                "resourceType": "DiagnosticReport",
                "category": [
                    {
                        "coding": [
                            {
                                "code": "GE",
                                "system": "http://terminology.hl7.org/CodeSystem/v2-0074"
                            }
                        ]
                    }
                ],
                "code": {
                    "coding": [
                        {
                            "code": "MOLT",
                            "display": "MOL TEST NAME",
                            "system": "L"
                        }
                    ]
                },
                "effectiveDateTime": "2019-05-14T10:20:00+00:00",
                "identifier": [
                    {
                        "type": {
                            "coding": [
                                {
                                    "code": "FILL",
                                    "system": "http://terminology.hl7.org/CodeSystem/v2-0203"
                                }
                            ]
                        },
                        "value": "190000041:27491"
                    }
                ],
                "issued": "2019-05-14T10:24:17+00:00",
                "performer": [
                    {
                        "extension": [
                            {
                                "url": "http://hl7.org/fhir/StructureDefinition/event-performerFunction",
                                "valueCodeableConcept": {
                                    "coding": [
                                        {
                                            "code": "SPRF",
                                            "system": "http://terminology.hl7.org/CodeSystem/v3-ParticipationType"
                                        }
                                    ]
                                }
                            }
                        ]
                    },
                    {
                        "display": "NHS North West Genomics",
                        "identifier": {
                            "system": "https://fhir.nhs.uk/Id/ods-organization-code",
                            "value": "699X0"
                        },
                        "type": "Organization"
                    }
                ],
                "result": [
                    {
                        "display": "INTERPRETATION",
                        "reference": "urn:uuid:50588013-e9f9-4054-a5a6-31c4491924a5",
                        "type": "Observation"
                    },
                    {
                        "display": "Reason for testing",
                        "reference": "urn:uuid:06f137b5-d0aa-4646-907e-5204e2fc745a",
                        "type": "Observation"
                    },
                    {
                        "display": "Test Methodology",
                        "reference": "urn:uuid:05439025-8924-4231-8d06-4e006912e927",
                        "type": "Observation"
                    },
                    {
                        "display": "Result summary",
                        "reference": "urn:uuid:9bf3bc14-72b1-4202-ac29-ab6cc8ba22b8",
                        "type": "Observation"
                    },
                    {
                        "display": "Patient phenotype",
                        "reference": "urn:uuid:127d1140-da95-4d98-9017-4ae748623cb3",
                        "type": "Observation"
                    },
                    {
                        "display": "Follow-up",
                        "reference": "urn:uuid:38c5e11e-024d-4488-8bfe-faf52230475b",
                        "type": "Observation"
                    },
                    {
                        "display": "Result",
                        "reference": "urn:uuid:9cc0186d-c553-4d8d-b004-e5a9a1640a1f",
                        "type": "Observation"
                    },
                    {
                        "display": "AlphaNumeric Generic Result Field 1",
                        "reference": "urn:uuid:444ec60b-17c9-4390-a7f1-c0555d2afb5e",
                        "type": "Observation"
                    }
                ],
                "specimen": [
                    {
                        "reference": "urn:uuid:21fe0120-89c2-47f6-8006-0f832bf72360",
                        "type": "Specimen"
                    }
                ],
                "status": "final",
                "subject": {
                    "identifier": {
                        "assigner": {
                            "identifier": {
                                "system": "https://fhir.nhs.uk/Id/ods-organization-code",
                                "value": "X24"
                            }
                        },
                        "system": "https://fhir.nhs.uk/Id/nhs-number",
                        "type": {
                            "coding": [
                                {
                                    "code": "NH",
                                    "system": "http://terminology.hl7.org/CodeSystem/v2-0203"
                                }
                            ]
                        },
                        "value": "9737383257"
                    },
                    "reference": "urn:uuid:d8d81cfb-abbd-4cb1-b8ca-61963e5cd723"
                }
            }
        }
    ],
    "identifier": {
        "value": "5051095-201905141025"
    },
    "timestamp": "2019-05-14T10:25:27+00:00",
    "type": "message"
}