{
    "resourceType": "Bundle",
    "entry": [
        {
            "fullUrl": "urn:uuid:9550e229-d77d-4085-b4b4-2ad7cd12eb1f",
            "resource": {
                "resourceType": "MessageHeader",
                "destination": [
                    {
                        "endpoint": "https//fhir.mft.nhs.uk/Endpoint/EPIC",
                        "receiver": {
                            "identifier": {
                                "system": "https://fhir.nhs.uk/Id/ods-organization-code",
                                "value": "699X0"
                            }
                        }
                    }
                ],
                "eventCoding": {
                    "code": "T02",
                    "system": "http://terminology.hl7.org/CodeSystem/v2-0003"
                },
                "focus": [
                    {
                        "reference": "urn:uuid:55dac267-427b-44d9-a942-521fc5586b93"
                    }
                ],
                "sender": {
                    "identifier": {
                        "system": "https://fhir.nhs.uk/Id/ods-organization-code",
                        "value": "699X0"
                    }
                },
                "source": {
                    "endpoint": "https://fhir.nwgenomics.nhs.uk/Endpoint/IGENE",
                    "software": "NW GLH"
                }
            }
        },
        {
            "fullUrl": "urn:uuid:505bee23-1046-4835-93af-a9ca9d6acfbf",
            "resource": {
                "resourceType": "Patient",
                "address": [
                    {
                        "postalCode": "NG10 1NP"
                    }
                ],
                "birthDate": "1924-01-05",
                "gender": "female",
                "identifier": [
                    {
                        "system": "https://fhir.nhs.uk/Id/nhs-number",
                        "type": {
                            "coding": [
                                {
                                    "code": "NH",
                                    "system": "http://terminology.hl7.org/CodeSystem/v2-0203"
                                }
                            ]
                        },
                        "value": "9737383265"
                    },
                    {
                        "assigner": {
                            "identifier": {
                                "system": "https://fhir.nhs.uk/Id/ods-organization-code",
                                "value": "RX1"
                            }
                        },
                        "type": {
                            "coding": [
                                {
                                    "code": "MR",
                                    "system": "http://terminology.hl7.org/CodeSystem/v2-0203"
                                }
                            ]
                        },
                        "value": "1234567"
                    }
                ],
                "name": [
                    {
                        "family": "NOTTINGHAM",
                        "given": [
                            "LYARRA"
                        ]
                    }
                ]
            }
        },
        {
            "fullUrl": "urn:uuid:b6ec96d4-cf97-4e6f-ab8b-b2bc51b25cfc",
            "resource": {
                "resourceType": "DocumentReference",
                "context": {
                    "period": {
                        "end": "2025-10-14T15:59:16+00:00",
                        "start": "2025-10-14T15:59:16+00:00"
                    },
                    "related": [
                        {
                            "identifier": {
                                "assigner": {
                                    "identifier": {
                                        "system": "https://fhir.nhs.uk/Id/ods-organization-code",
                                        "value": "RX1"
                                    }
                                },
                                "type": {
                                    "coding": [
                                        {
                                            "code": "PLAC",
                                            "system": "http://terminology.hl7.org/CodeSystem/v2-0203"
                                        }
                                    ]
                                },
                                "value": "100152874"
                            },
                            "reference": "urn:uuid:b7c0490e-c75d-4f1e-bdde-bcdbd8945f44",
                            "type": "ServiceRequest"
                        },
                        {
                            "identifier": {
                                "assigner": {
                                    "identifier": {
                                        "system": "https://fhir.nhs.uk/Id/ods-organization-code",
                                        "value": "699X0"
                                    }
                                },
                                "system": "https://fhir.nwgenomics.nhs.uk/iGene/ReportIdentifier",
                                "type": {
                                    "coding": [
                                        {
                                            "code": "FILL",
                                            "system": "http://terminology.hl7.org/CodeSystem/v2-0203"
                                        }
                                    ]
                                },
                                "value": "T25-0211"
                            },
                            "reference": "urn:uuid:55dac267-427b-44d9-a942-521fc5586b93",
                            "type": "DiagnosticReport"
                        }
                    ],
                    "sourcePatientInfo": {
                        "identifier": {
                            "assigner": {
                                "identifier": {
                                    "system": "https://fhir.nhs.uk/Id/ods-organization-code",
                                    "value": "RX1"
                                }
                            },
                            "type": {
                                "coding": [
                                    {
                                        "code": "MR",
                                        "system": "http://terminology.hl7.org/CodeSystem/v2-0203"
                                    }
                                ]
                            },
                            "value": "1234567"
                        }
                    }
                },
                "custodian": {
                    "identifier": {
                        "system": "https://fhir.nhs.uk/Id/ods-organization-code",
                        "value": "699X0"
                    },
                    "type": "Organization"
                },
                "date": "2025-10-14T15:59:16+00:00",
                "identifier": [
                    {
                        "assigner": {
                            "identifier": {
                                "system": "https://fhir.nhs.uk/Id/ods-organization-code",
                                "value": "699X0"
                            }
                        },
                        "system": "https://fhir.nwgenomics.nhs.uk/iGene/ReportIdentifier",
                        "type": {
                            "coding": [
                                {
                                    "code": "FILL",
                                    "system": "http://terminology.hl7.org/CodeSystem/v2-0203"
                                }
                            ]
                        },
                        "value": "T25-0211"
                    }
                ],
                "status": "current",
                "subject": {
                    "identifier": {
                        "system": "https://fhir.nhs.uk/Id/nhs-number",
                        "type": {
                            "coding": [
                                {
                                    "code": "NH",
                                    "system": "http://terminology.hl7.org/CodeSystem/v2-0203"
                                }
                            ]
                        },
                        "value": "9737383265"
                    },
                    "reference": "urn:uuid:505bee23-1046-4835-93af-a9ca9d6acfbf"
                },
                "type": {
                    "coding": [
                        {
                            "code": "1054161000000101",
                            "display": "Genetic report",
                            "system": "http://snomed.info/sct"
                        }
                    ]
                }
            }
        },
        {
            "fullUrl": "urn:uuid:4a0482cb-f68b-4a7d-8055-866ed684854a",
            "resource": {
                "resourceType": "Specimen",
                "identifier": [
                    {
                        "type": {
                            "coding": [
                                {
                                    "code": "PLAC",
                                    "system": "http://terminology.hl7.org/CodeSystem/v2-0203"
                                }
                            ]
                        },
                        "value": "T25-0211"
                    }
                ],
                "receivedTime": "2025-10-06T00:00:00+00:00",
                "status": "unavailable",
                "subject": {
                    "identifier": {
                        "system": "https://fhir.nhs.uk/Id/nhs-number",
                        "type": {
                            "coding": [
                                {
                                    "code": "NH",
                                    "system": "http://terminology.hl7.org/CodeSystem/v2-0203"
                                }
                            ]
                        },
                        "value": "9737383265"
                    },
                    "reference": "urn:uuid:505bee23-1046-4835-93af-a9ca9d6acfbf"
                }
            }
        },
        {
            "fullUrl": "urn:uuid:b7c0490e-c75d-4f1e-bdde-bcdbd8945f44",
            "resource": {
                "resourceType": "ServiceRequest",
                "category": [
                    {
                        "coding": [
                            {
                                "code": "116148004",
                                "system": "http://snomed.info/sct"
                            }
                        ]
                    }
                ],
                "code": {
                    "coding": [
                        {
                            "code": "R125.1",
                            "display": "Thoracic aortic aneurysm or dissection (WES or Medium Panel)",
                            "system": "https://fhir.nhs.uk/CodeSystem/England-GenomicTestDirectory"
                        }
                    ]
                },
                "identifier": [
                    {
                        "assigner": {
                            "identifier": {
                                "system": "https://fhir.nhs.uk/Id/ods-organization-code",
                                "value": "RX1"
                            }
                        },
                        "type": {
                            "coding": [
                                {
                                    "code": "PLAC",
                                    "system": "http://terminology.hl7.org/CodeSystem/v2-0203"
                                }
                            ]
                        },
                        "value": "100152874"
                    }
                ],
                "intent": "order",
                "reasonCode": [
                    {
                        "coding": [
                            {
                                "code": "R125",
                                "system": "https://fhir.nwgenomics.nhs.uk/CodeSystem/GenomicClinicalIndication"
                            }
                        ]
                    }
                ],
                "requester": {
                    "display": "Nottingham University Hospitals",
                    "identifier": {
                        "system": "https://fhir.nhs.uk/Id/ods-organization-code",
                        "value": "RX1"
                    },
                    "type": "Organization"
                },
                "specimen": [
                    {
                        "reference": "urn:uuid:4a0482cb-f68b-4a7d-8055-866ed684854a",
                        "type": "Specimen"
                    }
                ],
                "status": "completed",
                "subject": {
                    "identifier": {
                        "system": "https://fhir.nhs.uk/Id/nhs-number",
                        "type": {
                            "coding": [
                                {
                                    "code": "NH",
                                    "system": "http://terminology.hl7.org/CodeSystem/v2-0203"
                                }
                            ]
                        },
                        "value": "9737383265"
                    },
                    "reference": "urn:uuid:505bee23-1046-4835-93af-a9ca9d6acfbf"
                }
            }
        },
        {
            "fullUrl": "urn:uuid:55dac267-427b-44d9-a942-521fc5586b93",
            "resource": {
                "resourceType": "DiagnosticReport",
                "basedOn": [
                    {
                        "identifier": {
                            "assigner": {
                                "identifier": {
                                    "system": "https://fhir.nhs.uk/Id/ods-organization-code",
                                    "value": "RX1"
                                }
                            },
                            "type": {
                                "coding": [
                                    {
                                        "code": "PLAC",
                                        "system": "http://terminology.hl7.org/CodeSystem/v2-0203"
                                    }
                                ]
                            },
                            "value": "100152874"
                        },
                        "reference": "urn:uuid:b7c0490e-c75d-4f1e-bdde-bcdbd8945f44",
                        "type": "ServiceRequest"
                    }
                ],
                "category": [
                    {
                        "coding": [
                            {
                                "code": "GE",
                                "system": "http://terminology.hl7.org/CodeSystem/v2-0074"
                            }
                        ]
                    }
                ],
                "code": {
                    "coding": [
                        {
                            "code": "R125_Cardiology",
                            "display": "PANEL: R125.1, R125.2 - Thoracic aortic aneurysm and dissection v1.2",
                            "system": "https://fhir.nwgenomics.nhs.uk/CodeSystem/IGEAP"
                        },
                        {
                            "code": "R125.1",
                            "display": "Thoracic aortic aneurysm or dissection (WES or Medium Panel)",
                            "system": "https://fhir.nhs.uk/CodeSystem/England-GenomicTestDirectory"
                        }
                    ]
                },
                "effectiveDateTime": "2025-10-14T15:59:16+00:00",
                "extension": [
                    {
                        "url": "http://hl7.org/fhir/StructureDefinition/workflow-supportingInfo",
                        "valueReference": {
                            "display": "Genetic report",
                            "reference": "urn:uuid:b6ec96d4-cf97-4e6f-ab8b-b2bc51b25cfc",
                            "type": "DocumentReference"
                        }
                    }
                ],
                "identifier": [
                    {
                        "assigner": {
                            "identifier": {
                                "system": "https://fhir.nhs.uk/Id/ods-organization-code",
                                "value": "699X0"
                            }
                        },
                        "system": "https://fhir.nwgenomics.nhs.uk/iGene/ReportIdentifier",
                        "type": {
                            "coding": [
                                {
                                    "code": "FILL",
                                    "system": "http://terminology.hl7.org/CodeSystem/v2-0203"
                                }
                            ]
                        },
                        "value": "T25-0211"
                    }
                ],
                "issued": "2025-10-14T15:59:16+00:00",
                "performer": [
                    {
                        "display": "NHS North West Genomics",
                        "identifier": {
                            "system": "https://fhir.nhs.uk/Id/ods-organization-code",
                            "value": "699X0"
                        },
                        "type": "Organization"
                    }
                ],
                "presentedForm": [
                    {}
                ],
                "resultsInterpreter": [
                    {
                        "display": "Jonathan Edgerley"
                    }
                ],
                "specimen": [
                    {
                        "reference": "urn:uuid:4a0482cb-f68b-4a7d-8055-866ed684854a",
                        "type": "Specimen"
                    }
                ],
                "status": "final",
                "subject": {
                    "identifier": {
                        "system": "https://fhir.nhs.uk/Id/nhs-number",
                        "type": {
                            "coding": [
                                {
                                    "code": "NH",
                                    "system": "http://terminology.hl7.org/CodeSystem/v2-0203"
                                }
                            ]
                        },
                        "value": "9737383265"
                    },
                    "reference": "urn:uuid:505bee23-1046-4835-93af-a9ca9d6acfbf"
                }
            }
        }
    ],
    "identifier": {
        "value": "ORIE-251014-9"
    },
    "timestamp": "2025-10-14T15:59:42+00:00",
    "type": "message"
}