{
    "resourceType": "Bundle",
    "entry": [
        {
            "fullUrl": "urn:uuid:9cccd269-0fef-4e7e-95de-63a4bf97ce79",
            "resource": {
                "resourceType": "MessageHeader",
                "destination": [
                    {
                        "endpoint": "https//fhir.mft.nhs.uk/Endpoint/EPIC",
                        "receiver": {
                            "identifier": {
                                "system": "https://fhir.nhs.uk/Id/ods-organization-code",
                                "value": "699X0"
                            }
                        }
                    }
                ],
                "eventCoding": {
                    "code": "T02",
                    "system": "http://terminology.hl7.org/CodeSystem/v2-0003"
                },
                "focus": [
                    {
                        "reference": "urn:uuid:59a51afc-b3c4-4687-ab3b-a0c54d5bcd85"
                    }
                ],
                "sender": {
                    "identifier": {
                        "system": "https://fhir.nhs.uk/Id/ods-organization-code",
                        "value": "699X0"
                    }
                },
                "source": {
                    "endpoint": "https://fhir.nwgenomics.nhs.uk/Endpoint/IGENE",
                    "software": "NW GLH"
                }
            }
        },
        {
            "fullUrl": "urn:uuid:3de85fd8-ff9b-4704-8c85-4f90ac5699a8",
            "resource": {
                "resourceType": "Patient",
                "address": [
                    {
                        "postalCode": "LL11 2AH"
                    }
                ],
                "birthDate": "1999-10-13",
                "gender": "female",
                "identifier": [
                    {
                        "system": "https://fhir.nhs.uk/Id/nhs-number",
                        "type": {
                            "coding": [
                                {
                                    "code": "NH",
                                    "system": "http://terminology.hl7.org/CodeSystem/v2-0203"
                                }
                            ]
                        },
                        "value": "9737383257"
                    }
                ],
                "name": [
                    {
                        "family": "WREXHAM",
                        "given": [
                            "Myrcella"
                        ]
                    }
                ]
            }
        },
        {
            "fullUrl": "urn:uuid:06d7d3fa-c22b-4a05-96bc-e35742ff084e",
            "resource": {
                "resourceType": "DocumentReference",
                "context": {
                    "period": {
                        "end": "2025-10-14T15:59:16+00:00",
                        "start": "2025-10-14T15:59:16+00:00"
                    },
                    "related": [
                        {
                            "identifier": {
                                "assigner": {
                                    "identifier": {
                                        "system": "https://fhir.nhs.uk/Id/ods-organization-code",
                                        "value": "7A3"
                                    }
                                },
                                "type": {
                                    "coding": [
                                        {
                                            "code": "PLAC",
                                            "system": "http://terminology.hl7.org/CodeSystem/v2-0203"
                                        }
                                    ]
                                },
                                "value": "1300152868"
                            },
                            "reference": "urn:uuid:dd7c9d1a-9d06-4c08-aab1-3fbf5bedb39b",
                            "type": "ServiceRequest"
                        },
                        {
                            "identifier": {
                                "assigner": {
                                    "identifier": {
                                        "system": "https://fhir.nhs.uk/Id/ods-organization-code",
                                        "value": "699X0"
                                    }
                                },
                                "system": "https://fhir.nwgenomics.nhs.uk/iGene/ReportIdentifier",
                                "type": {
                                    "coding": [
                                        {
                                            "code": "FILL",
                                            "system": "http://terminology.hl7.org/CodeSystem/v2-0203"
                                        }
                                    ]
                                },
                                "value": "T25-1308"
                            },
                            "reference": "urn:uuid:59a51afc-b3c4-4687-ab3b-a0c54d5bcd85",
                            "type": "DiagnosticReport"
                        }
                    ]
                },
                "custodian": {
                    "identifier": {
                        "system": "https://fhir.nhs.uk/Id/ods-organization-code",
                        "value": "699X0"
                    },
                    "type": "Organization"
                },
                "date": "2025-10-14T15:59:16+00:00",
                "identifier": [
                    {
                        "assigner": {
                            "identifier": {
                                "system": "https://fhir.nhs.uk/Id/ods-organization-code",
                                "value": "699X0"
                            }
                        },
                        "system": "https://fhir.nwgenomics.nhs.uk/iGene/ReportIdentifier",
                        "type": {
                            "coding": [
                                {
                                    "code": "FILL",
                                    "system": "http://terminology.hl7.org/CodeSystem/v2-0203"
                                }
                            ]
                        },
                        "value": "T25-1308"
                    }
                ],
                "status": "current",
                "subject": {
                    "identifier": {
                        "system": "https://fhir.nhs.uk/Id/nhs-number",
                        "type": {
                            "coding": [
                                {
                                    "code": "NH",
                                    "system": "http://terminology.hl7.org/CodeSystem/v2-0203"
                                }
                            ]
                        },
                        "value": "9737383257"
                    },
                    "reference": "urn:uuid:3de85fd8-ff9b-4704-8c85-4f90ac5699a8"
                },
                "type": {
                    "coding": [
                        {
                            "code": "1054161000000101",
                            "display": "Genetic report",
                            "system": "http://snomed.info/sct"
                        }
                    ]
                }
            }
        },
        {
            "fullUrl": "urn:uuid:5c40dd3c-07b8-4fa1-b60a-81cbba4d4e19",
            "resource": {
                "resourceType": "Specimen",
                "identifier": [
                    {
                        "type": {
                            "coding": [
                                {
                                    "code": "PLAC",
                                    "system": "http://terminology.hl7.org/CodeSystem/v2-0203"
                                }
                            ]
                        },
                        "value": "T25-1308"
                    }
                ],
                "receivedTime": "2025-10-06T00:00:00+00:00",
                "status": "unavailable",
                "subject": {
                    "identifier": {
                        "system": "https://fhir.nhs.uk/Id/nhs-number",
                        "type": {
                            "coding": [
                                {
                                    "code": "NH",
                                    "system": "http://terminology.hl7.org/CodeSystem/v2-0203"
                                }
                            ]
                        },
                        "value": "9737383257"
                    },
                    "reference": "urn:uuid:3de85fd8-ff9b-4704-8c85-4f90ac5699a8"
                }
            }
        },
        {
            "fullUrl": "urn:uuid:dd7c9d1a-9d06-4c08-aab1-3fbf5bedb39b",
            "resource": {
                "resourceType": "ServiceRequest",
                "category": [
                    {
                        "coding": [
                            {
                                "code": "116148004",
                                "system": "http://snomed.info/sct"
                            }
                        ]
                    }
                ],
                "code": {
                    "coding": [
                        {
                            "code": "R125.1",
                            "display": "Thoracic aortic aneurysm or dissection (WES or Medium Panel)",
                            "system": "https://fhir.nhs.uk/CodeSystem/England-GenomicTestDirectory"
                        }
                    ]
                },
                "identifier": [
                    {
                        "assigner": {
                            "identifier": {
                                "system": "https://fhir.nhs.uk/Id/ods-organization-code",
                                "value": "7A3"
                            }
                        },
                        "type": {
                            "coding": [
                                {
                                    "code": "PLAC",
                                    "system": "http://terminology.hl7.org/CodeSystem/v2-0203"
                                }
                            ]
                        },
                        "value": "1300152868"
                    }
                ],
                "intent": "order",
                "reasonCode": [
                    {
                        "coding": [
                            {
                                "code": "R125",
                                "system": "https://fhir.nwgenomics.nhs.uk/CodeSystem/GenomicClinicalIndication"
                            }
                        ]
                    }
                ],
                "requester": {
                    "display": "Betsi Cadwaladr University Local Health Board",
                    "identifier": {
                        "system": "https://fhir.nhs.uk/Id/ods-organization-code",
                        "value": "7A3"
                    },
                    "type": "Organization"
                },
                "specimen": [
                    {
                        "reference": "urn:uuid:5c40dd3c-07b8-4fa1-b60a-81cbba4d4e19",
                        "type": "Specimen"
                    }
                ],
                "status": "completed",
                "subject": {
                    "identifier": {
                        "system": "https://fhir.nhs.uk/Id/nhs-number",
                        "type": {
                            "coding": [
                                {
                                    "code": "NH",
                                    "system": "http://terminology.hl7.org/CodeSystem/v2-0203"
                                }
                            ]
                        },
                        "value": "9737383257"
                    },
                    "reference": "urn:uuid:3de85fd8-ff9b-4704-8c85-4f90ac5699a8"
                }
            }
        },
        {
            "fullUrl": "urn:uuid:59a51afc-b3c4-4687-ab3b-a0c54d5bcd85",
            "resource": {
                "resourceType": "DiagnosticReport",
                "basedOn": [
                    {
                        "identifier": {
                            "assigner": {
                                "identifier": {
                                    "system": "https://fhir.nhs.uk/Id/ods-organization-code",
                                    "value": "7A3"
                                }
                            },
                            "type": {
                                "coding": [
                                    {
                                        "code": "PLAC",
                                        "system": "http://terminology.hl7.org/CodeSystem/v2-0203"
                                    }
                                ]
                            },
                            "value": "1300152868"
                        },
                        "reference": "urn:uuid:dd7c9d1a-9d06-4c08-aab1-3fbf5bedb39b",
                        "type": "ServiceRequest"
                    }
                ],
                "category": [
                    {
                        "coding": [
                            {
                                "code": "GE",
                                "system": "http://terminology.hl7.org/CodeSystem/v2-0074"
                            }
                        ]
                    }
                ],
                "code": {
                    "coding": [
                        {
                            "code": "R125_Cardiology",
                            "display": "PANEL: R125.1, R125.2 - Thoracic aortic aneurysm and dissection v1.2",
                            "system": "https://fhir.nwgenomics.nhs.uk/CodeSystem/IGEAP"
                        },
                        {
                            "code": "R125.1",
                            "display": "Thoracic aortic aneurysm or dissection (WES or Medium Panel)",
                            "system": "https://fhir.nhs.uk/CodeSystem/England-GenomicTestDirectory"
                        }
                    ]
                },
                "effectiveDateTime": "2025-10-14T15:59:16+00:00",
                "extension": [
                    {
                        "url": "http://hl7.org/fhir/StructureDefinition/workflow-supportingInfo",
                        "valueReference": {
                            "display": "Genetic report",
                            "reference": "urn:uuid:06d7d3fa-c22b-4a05-96bc-e35742ff084e",
                            "type": "DocumentReference"
                        }
                    }
                ],
                "identifier": [
                    {
                        "assigner": {
                            "identifier": {
                                "system": "https://fhir.nhs.uk/Id/ods-organization-code",
                                "value": "699X0"
                            }
                        },
                        "system": "https://fhir.nwgenomics.nhs.uk/iGene/ReportIdentifier",
                        "type": {
                            "coding": [
                                {
                                    "code": "FILL",
                                    "system": "http://terminology.hl7.org/CodeSystem/v2-0203"
                                }
                            ]
                        },
                        "value": "T25-1308"
                    }
                ],
                "issued": "2025-10-14T15:59:16+00:00",
                "performer": [
                    {
                        "display": "NHS North West Genomics",
                        "identifier": {
                            "system": "https://fhir.nhs.uk/Id/ods-organization-code",
                            "value": "699X0"
                        },
                        "type": "Organization"
                    }
                ],
                "presentedForm": [
                    {}
                ],
                "resultsInterpreter": [
                    {
                        "display": "Jonathan Edgerley"
                    }
                ],
                "specimen": [
                    {
                        "reference": "urn:uuid:5c40dd3c-07b8-4fa1-b60a-81cbba4d4e19",
                        "type": "Specimen"
                    }
                ],
                "status": "final",
                "subject": {
                    "identifier": {
                        "system": "https://fhir.nhs.uk/Id/nhs-number",
                        "type": {
                            "coding": [
                                {
                                    "code": "NH",
                                    "system": "http://terminology.hl7.org/CodeSystem/v2-0203"
                                }
                            ]
                        },
                        "value": "9737383257"
                    },
                    "reference": "urn:uuid:3de85fd8-ff9b-4704-8c85-4f90ac5699a8"
                }
            }
        }
    ],
    "identifier": {
        "value": "ORIE-251014-9"
    },
    "timestamp": "2025-10-14T15:59:42+00:00",
    "type": "message"
}