{
    "resourceType": "Bundle",
    "entry": [
        {
            "fullUrl": "urn:uuid:07ea9036-11f4-4981-b140-46d911defcb9",
            "resource": {
                "resourceType": "MessageHeader",
                "destination": [
                    {
                        "endpoint": "https//fhir.mft.nhs.uk/Endpoint/cymru.nhs.uk",
                        "receiver": {
                            "identifier": {
                                "system": "https://fhir.nhs.uk/Id/ods-organization-code",
                                "value": "NHSWales"
                            }
                        }
                    }
                ],
                "eventCoding": {
                    "code": "T02",
                    "system": "http://terminology.hl7.org/CodeSystem/v2-0003"
                },
                "focus": [
                    {
                        "reference": "urn:uuid:1ddd0605-9bba-4b5d-ab6c-44a34fb3f352"
                    },
                    {
                        "reference": "urn:uuid:ee699009-0a22-4739-ae54-ef9292641d5c"
                    },
                    {
                        "reference": "urn:uuid:78f1efd0-f16f-42c1-83ed-ebe85a356090"
                    },
                    {
                        "reference": "urn:uuid:0cf2d0e5-1dac-4db4-a791-d0ab10c458d8"
                    },
                    {
                        "reference": "urn:uuid:4b242ec0-c04d-4cc4-8617-a47055130886"
                    }
                ],
                "sender": {
                    "identifier": {
                        "system": "https://fhir.nhs.uk/Id/ods-organization-code",
                        "value": "CAV"
                    }
                },
                "source": {
                    "endpoint": "https://fhir.nwgenomics.nhs.uk/Endpoint/ACMELab",
                    "software": "NW GLH"
                }
            }
        },
        {
            "fullUrl": "urn:uuid:2f8f7bb9-3491-4934-bbf8-e09bf46d09fd",
            "resource": {
                "resourceType": "Patient",
                "address": [
                    {
                        "city": "Baglan",
                        "district": "Neath port talbot",
                        "line": [
                            "A B M U Health Board",
                            "One Talbot Gateway"
                        ],
                        "postalCode": "SA12 7BR"
                    }
                ],
                "birthDate": "1999-10-13",
                "gender": "male",
                "identifier": [
                    {
                        "assigner": {
                            "identifier": {
                                "system": "https://fhir.nhs.uk/Id/ods-organization-code",
                                "value": "7A4"
                            }
                        },
                        "type": {
                            "coding": [
                                {
                                    "code": "PI",
                                    "system": "http://terminology.hl7.org/CodeSystem/v2-0203"
                                }
                            ]
                        },
                        "value": "403281375"
                    },
                    {
                        "assigner": {
                            "identifier": {
                                "system": "https://fhir.nhs.uk/Id/ods-organization-code",
                                "value": "X24"
                            }
                        },
                        "system": "https://fhir.nhs.uk/Id/nhs-number",
                        "type": {
                            "coding": [
                                {
                                    "code": "NH",
                                    "system": "http://terminology.hl7.org/CodeSystem/v2-0203"
                                }
                            ]
                        },
                        "value": "9737383257"
                    }
                ],
                "name": [
                    {
                        "family": "WREXHAM",
                        "given": [
                            "Myrcella"
                        ],
                        "prefix": [
                            "Mr"
                        ]
                    }
                ]
            }
        },
        {
            "fullUrl": "urn:uuid:86facf5f-a4e9-4fac-bf3b-ee1d50714346",
            "resource": {
                "resourceType": "Observation",
                "code": {
                    "coding": [
                        {
                            "code": "B3553",
                            "display": "HbA1c (IFCC traceable)"
                        }
                    ]
                },
                "effectiveDateTime": "2018-03-09T15:00:00+00:00",
                "identifier": [
                    {
                        "type": {
                            "coding": [
                                {
                                    "code": "FILL",
                                    "system": "http://terminology.hl7.org/CodeSystem/v2-0203"
                                }
                            ]
                        },
                        "value": "914694928301"
                    }
                ],
                "performer": [
                    {
                        "identifier": {
                            "system": "https://fhir.nhs.uk/Id/ods-organization-code",
                            "value": "699X0"
                        },
                        "type": "Organization"
                    }
                ],
                "referenceRange": [
                    {
                        "text": "<48"
                    }
                ],
                "status": "final",
                "subject": {
                    "identifier": {
                        "assigner": {
                            "identifier": {
                                "system": "https://fhir.nhs.uk/Id/ods-organization-code",
                                "value": "X24"
                            }
                        },
                        "system": "https://fhir.nhs.uk/Id/nhs-number",
                        "type": {
                            "coding": [
                                {
                                    "code": "NH",
                                    "system": "http://terminology.hl7.org/CodeSystem/v2-0203"
                                }
                            ]
                        },
                        "value": "9737383257"
                    },
                    "reference": "urn:uuid:2f8f7bb9-3491-4934-bbf8-e09bf46d09fd"
                },
                "valueQuantity": {
                    "system": "http://unitsofmeasure.org",
                    "unit": "mmol/mol",
                    "value": 49
                }
            }
        },
        {
            "fullUrl": "urn:uuid:4cddc321-ec57-4044-90d6-ee9ffa49cfc4",
            "resource": {
                "resourceType": "Specimen",
                "identifier": [
                    {
                        "type": {
                            "coding": [
                                {
                                    "code": "PLAC",
                                    "system": "http://terminology.hl7.org/CodeSystem/v2-0203"
                                }
                            ]
                        },
                        "value": "914694928301"
                    }
                ],
                "receivedTime": "2018-03-09T15:00:00+00:00",
                "status": "unavailable",
                "subject": {
                    "identifier": {
                        "assigner": {
                            "identifier": {
                                "system": "https://fhir.nhs.uk/Id/ods-organization-code",
                                "value": "X24"
                            }
                        },
                        "system": "https://fhir.nhs.uk/Id/nhs-number",
                        "type": {
                            "coding": [
                                {
                                    "code": "NH",
                                    "system": "http://terminology.hl7.org/CodeSystem/v2-0203"
                                }
                            ]
                        },
                        "value": "9737383257"
                    },
                    "reference": "urn:uuid:2f8f7bb9-3491-4934-bbf8-e09bf46d09fd"
                }
            }
        },
        {
            "fullUrl": "urn:uuid:08141ede-c58f-4c38-9e3e-ac58924ca87d",
            "resource": {
                "resourceType": "ServiceRequest",
                "category": [
                    {
                        "coding": [
                            {
                                "code": "116148004",
                                "system": "http://snomed.info/sct"
                            }
                        ]
                    }
                ],
                "code": {
                    "coding": [
                        {
                            "code": "B3051",
                            "display": "HbA1c (IFCC traceable)"
                        }
                    ]
                },
                "identifier": [
                    {
                        "type": {
                            "coding": [
                                {
                                    "code": "FILL",
                                    "system": "http://terminology.hl7.org/CodeSystem/v2-0203"
                                }
                            ]
                        },
                        "value": "914694928301"
                    }
                ],
                "intent": "order",
                "specimen": [
                    {
                        "reference": "urn:uuid:4cddc321-ec57-4044-90d6-ee9ffa49cfc4",
                        "type": "Specimen"
                    }
                ],
                "status": "completed",
                "subject": {
                    "identifier": {
                        "assigner": {
                            "identifier": {
                                "system": "https://fhir.nhs.uk/Id/ods-organization-code",
                                "value": "X24"
                            }
                        },
                        "system": "https://fhir.nhs.uk/Id/nhs-number",
                        "type": {
                            "coding": [
                                {
                                    "code": "NH",
                                    "system": "http://terminology.hl7.org/CodeSystem/v2-0203"
                                }
                            ]
                        },
                        "value": "9737383257"
                    },
                    "reference": "urn:uuid:2f8f7bb9-3491-4934-bbf8-e09bf46d09fd"
                }
            }
        },
        {
            "fullUrl": "urn:uuid:1ddd0605-9bba-4b5d-ab6c-44a34fb3f352",
            "resource": {
                "resourceType": "DiagnosticReport",
                "basedOn": [
                    {
                        "identifier": {
                            "type": {
                                "coding": [
                                    {
                                        "code": "FILL",
                                        "system": "http://terminology.hl7.org/CodeSystem/v2-0203"
                                    }
                                ]
                            },
                            "value": "914694928301"
                        },
                        "reference": "urn:uuid:08141ede-c58f-4c38-9e3e-ac58924ca87d",
                        "type": "ServiceRequest"
                    }
                ],
                "category": [
                    {
                        "coding": [
                            {
                                "code": "GE",
                                "system": "http://terminology.hl7.org/CodeSystem/v2-0074"
                            }
                        ]
                    }
                ],
                "code": {
                    "coding": [
                        {
                            "code": "B3051",
                            "display": "HbA1c (IFCC traceable)"
                        }
                    ]
                },
                "effectiveDateTime": "2018-03-09T15:00:00+00:00",
                "identifier": [
                    {
                        "type": {
                            "coding": [
                                {
                                    "code": "FILL",
                                    "system": "http://terminology.hl7.org/CodeSystem/v2-0203"
                                }
                            ]
                        },
                        "value": "914694928301"
                    }
                ],
                "issued": "2018-03-09T15:00:00+00:00",
                "performer": [
                    {
                        "display": "NHS North West Genomics",
                        "identifier": {
                            "system": "https://fhir.nhs.uk/Id/ods-organization-code",
                            "value": "699X0"
                        },
                        "type": "Organization"
                    }
                ],
                "result": [
                    {
                        "display": "HbA1c (IFCC traceable)",
                        "reference": "urn:uuid:86facf5f-a4e9-4fac-bf3b-ee1d50714346",
                        "type": "Observation"
                    }
                ],
                "specimen": [
                    {
                        "reference": "urn:uuid:4cddc321-ec57-4044-90d6-ee9ffa49cfc4",
                        "type": "Specimen"
                    }
                ],
                "status": "final",
                "subject": {
                    "identifier": {
                        "assigner": {
                            "identifier": {
                                "system": "https://fhir.nhs.uk/Id/ods-organization-code",
                                "value": "X24"
                            }
                        },
                        "system": "https://fhir.nhs.uk/Id/nhs-number",
                        "type": {
                            "coding": [
                                {
                                    "code": "NH",
                                    "system": "http://terminology.hl7.org/CodeSystem/v2-0203"
                                }
                            ]
                        },
                        "value": "9737383257"
                    },
                    "reference": "urn:uuid:2f8f7bb9-3491-4934-bbf8-e09bf46d09fd"
                }
            }
        },
        {
            "fullUrl": "urn:uuid:a27139a2-ec70-48cd-9daa-014a76f1a6d6",
            "resource": {
                "resourceType": "Observation",
                "code": {
                    "coding": [
                        {
                            "code": "B0300",
                            "display": "White blood cell (WBC) count"
                        }
                    ]
                },
                "effectiveDateTime": "2018-03-09T15:00:00+00:00",
                "identifier": [
                    {
                        "type": {
                            "coding": [
                                {
                                    "code": "FILL",
                                    "system": "http://terminology.hl7.org/CodeSystem/v2-0203"
                                }
                            ]
                        },
                        "value": "914694928301"
                    }
                ],
                "performer": [
                    {
                        "identifier": {
                            "system": "https://fhir.nhs.uk/Id/ods-organization-code",
                            "value": "699X0"
                        },
                        "type": "Organization"
                    }
                ],
                "referenceRange": [
                    {
                        "text": "4.0-11.0"
                    }
                ],
                "status": "final",
                "subject": {
                    "identifier": {
                        "assigner": {
                            "identifier": {
                                "system": "https://fhir.nhs.uk/Id/ods-organization-code",
                                "value": "X24"
                            }
                        },
                        "system": "https://fhir.nhs.uk/Id/nhs-number",
                        "type": {
                            "coding": [
                                {
                                    "code": "NH",
                                    "system": "http://terminology.hl7.org/CodeSystem/v2-0203"
                                }
                            ]
                        },
                        "value": "9737383257"
                    },
                    "reference": "urn:uuid:2f8f7bb9-3491-4934-bbf8-e09bf46d09fd"
                },
                "valueQuantity": {
                    "system": "http://unitsofmeasure.org",
                    "unit": "x10\\S\\9/L",
                    "value": 3.5
                }
            }
        },
        {
            "fullUrl": "urn:uuid:dafffa9e-8666-4a6e-af10-93e19e951f43",
            "resource": {
                "resourceType": "Observation",
                "code": {
                    "coding": [
                        {
                            "code": "B0307",
                            "display": "Haemoglobin (Hb)"
                        }
                    ]
                },
                "effectiveDateTime": "2018-03-09T15:00:00+00:00",
                "identifier": [
                    {
                        "type": {
                            "coding": [
                                {
                                    "code": "FILL",
                                    "system": "http://terminology.hl7.org/CodeSystem/v2-0203"
                                }
                            ]
                        },
                        "value": "914694928301"
                    }
                ],
                "performer": [
                    {
                        "identifier": {
                            "system": "https://fhir.nhs.uk/Id/ods-organization-code",
                            "value": "699X0"
                        },
                        "type": "Organization"
                    }
                ],
                "referenceRange": [
                    {
                        "text": "130-180"
                    }
                ],
                "status": "final",
                "subject": {
                    "identifier": {
                        "assigner": {
                            "identifier": {
                                "system": "https://fhir.nhs.uk/Id/ods-organization-code",
                                "value": "X24"
                            }
                        },
                        "system": "https://fhir.nhs.uk/Id/nhs-number",
                        "type": {
                            "coding": [
                                {
                                    "code": "NH",
                                    "system": "http://terminology.hl7.org/CodeSystem/v2-0203"
                                }
                            ]
                        },
                        "value": "9737383257"
                    },
                    "reference": "urn:uuid:2f8f7bb9-3491-4934-bbf8-e09bf46d09fd"
                },
                "valueQuantity": {
                    "comparator": "<",
                    "system": "http://unitsofmeasure.org",
                    "unit": "g/L",
                    "value": 149
                }
            }
        },
        {
            "fullUrl": "urn:uuid:4873c98d-79a4-47d4-92e6-3838c2d9a50a",
            "resource": {
                "resourceType": "Observation",
                "code": {
                    "coding": [
                        {
                            "code": "B0314",
                            "display": "Platelet (PLT) count"
                        }
                    ]
                },
                "effectiveDateTime": "2018-03-09T15:00:00+00:00",
                "identifier": [
                    {
                        "type": {
                            "coding": [
                                {
                                    "code": "FILL",
                                    "system": "http://terminology.hl7.org/CodeSystem/v2-0203"
                                }
                            ]
                        },
                        "value": "914694928301"
                    }
                ],
                "performer": [
                    {
                        "identifier": {
                            "system": "https://fhir.nhs.uk/Id/ods-organization-code",
                            "value": "699X0"
                        },
                        "type": "Organization"
                    }
                ],
                "referenceRange": [
                    {
                        "text": "150-400"
                    }
                ],
                "status": "final",
                "subject": {
                    "identifier": {
                        "assigner": {
                            "identifier": {
                                "system": "https://fhir.nhs.uk/Id/ods-organization-code",
                                "value": "X24"
                            }
                        },
                        "system": "https://fhir.nhs.uk/Id/nhs-number",
                        "type": {
                            "coding": [
                                {
                                    "code": "NH",
                                    "system": "http://terminology.hl7.org/CodeSystem/v2-0203"
                                }
                            ]
                        },
                        "value": "9737383257"
                    },
                    "reference": "urn:uuid:2f8f7bb9-3491-4934-bbf8-e09bf46d09fd"
                },
                "valueQuantity": {
                    "system": "http://unitsofmeasure.org",
                    "unit": "x10\\S\\9/L",
                    "value": 500
                }
            }
        },
        {
            "fullUrl": "urn:uuid:7ee9cfc2-5ab7-47c3-ae08-76dee1920048",
            "resource": {
                "resourceType": "Observation",
                "code": {
                    "coding": [
                        {
                            "code": "B0306",
                            "display": "Red blood cell (RBC) count"
                        }
                    ]
                },
                "effectiveDateTime": "2018-03-09T15:00:00+00:00",
                "identifier": [
                    {
                        "type": {
                            "coding": [
                                {
                                    "code": "FILL",
                                    "system": "http://terminology.hl7.org/CodeSystem/v2-0203"
                                }
                            ]
                        },
                        "value": "914694928301"
                    }
                ],
                "performer": [
                    {
                        "identifier": {
                            "system": "https://fhir.nhs.uk/Id/ods-organization-code",
                            "value": "699X0"
                        },
                        "type": "Organization"
                    }
                ],
                "referenceRange": [
                    {
                        "text": "4.50-6.00"
                    }
                ],
                "status": "final",
                "subject": {
                    "identifier": {
                        "assigner": {
                            "identifier": {
                                "system": "https://fhir.nhs.uk/Id/ods-organization-code",
                                "value": "X24"
                            }
                        },
                        "system": "https://fhir.nhs.uk/Id/nhs-number",
                        "type": {
                            "coding": [
                                {
                                    "code": "NH",
                                    "system": "http://terminology.hl7.org/CodeSystem/v2-0203"
                                }
                            ]
                        },
                        "value": "9737383257"
                    },
                    "reference": "urn:uuid:2f8f7bb9-3491-4934-bbf8-e09bf46d09fd"
                },
                "valueQuantity": {
                    "system": "http://unitsofmeasure.org",
                    "unit": "x10\\S\\12/L",
                    "value": 6.0
                }
            }
        },
        {
            "fullUrl": "urn:uuid:ddd6b1cd-fa4f-482f-9690-a67b642fcc7f",
            "resource": {
                "resourceType": "Observation",
                "code": {
                    "coding": [
                        {
                            "code": "B0309",
                            "display": "Mean cell volume (MCV)"
                        }
                    ]
                },
                "effectiveDateTime": "2018-03-09T15:00:00+00:00",
                "identifier": [
                    {
                        "type": {
                            "coding": [
                                {
                                    "code": "FILL",
                                    "system": "http://terminology.hl7.org/CodeSystem/v2-0203"
                                }
                            ]
                        },
                        "value": "914694928301"
                    }
                ],
                "performer": [
                    {
                        "identifier": {
                            "system": "https://fhir.nhs.uk/Id/ods-organization-code",
                            "value": "699X0"
                        },
                        "type": "Organization"
                    }
                ],
                "referenceRange": [
                    {
                        "text": "80-100"
                    }
                ],
                "status": "final",
                "subject": {
                    "identifier": {
                        "assigner": {
                            "identifier": {
                                "system": "https://fhir.nhs.uk/Id/ods-organization-code",
                                "value": "X24"
                            }
                        },
                        "system": "https://fhir.nhs.uk/Id/nhs-number",
                        "type": {
                            "coding": [
                                {
                                    "code": "NH",
                                    "system": "http://terminology.hl7.org/CodeSystem/v2-0203"
                                }
                            ]
                        },
                        "value": "9737383257"
                    },
                    "reference": "urn:uuid:2f8f7bb9-3491-4934-bbf8-e09bf46d09fd"
                },
                "valueCodeableConcept": {
                    "coding": [
                        {
                            "code": "NA",
                            "display": "Not assayed",
                            "system": "ACME"
                        }
                    ]
                }
            }
        },
        {
            "fullUrl": "urn:uuid:d06c5d49-4029-4f40-bb95-23135ba37042",
            "resource": {
                "resourceType": "Specimen",
                "collection": {
                    "collectedDateTime": "2018-03-09T14:00:00+00:00"
                },
                "identifier": [
                    {
                        "type": {
                            "coding": [
                                {
                                    "code": "FILL",
                                    "system": "http://terminology.hl7.org/CodeSystem/v2-0203"
                                }
                            ]
                        },
                        "value": "9146949283"
                    }
                ],
                "receivedTime": "2018-03-09T15:00:00+00:00",
                "status": "unavailable",
                "subject": {
                    "identifier": {
                        "assigner": {
                            "identifier": {
                                "system": "https://fhir.nhs.uk/Id/ods-organization-code",
                                "value": "X24"
                            }
                        },
                        "system": "https://fhir.nhs.uk/Id/nhs-number",
                        "type": {
                            "coding": [
                                {
                                    "code": "NH",
                                    "system": "http://terminology.hl7.org/CodeSystem/v2-0203"
                                }
                            ]
                        },
                        "value": "9737383257"
                    },
                    "reference": "urn:uuid:2f8f7bb9-3491-4934-bbf8-e09bf46d09fd"
                },
                "type": {
                    "coding": [
                        {
                            "code": "BLOO",
                            "display": "Blood",
                            "system": "ACME"
                        }
                    ]
                }
            }
        },
        {
            "fullUrl": "urn:uuid:ee699009-0a22-4739-ae54-ef9292641d5c",
            "resource": {
                "resourceType": "DiagnosticReport",
                "category": [
                    {
                        "coding": [
                            {
                                "code": "GE",
                                "system": "http://terminology.hl7.org/CodeSystem/v2-0074"
                            }
                        ]
                    }
                ],
                "code": {
                    "coding": [
                        {
                            "code": "B0001",
                            "display": "Full blood count"
                        }
                    ]
                },
                "effectiveDateTime": "2018-03-09T15:00:00+00:00",
                "identifier": [
                    {
                        "type": {
                            "coding": [
                                {
                                    "code": "FILL",
                                    "system": "http://terminology.hl7.org/CodeSystem/v2-0203"
                                }
                            ]
                        },
                        "value": "914694928301"
                    }
                ],
                "issued": "2018-03-09T15:00:00+00:00",
                "performer": [
                    {
                        "display": "NHS North West Genomics",
                        "identifier": {
                            "system": "https://fhir.nhs.uk/Id/ods-organization-code",
                            "value": "699X0"
                        },
                        "type": "Organization"
                    }
                ],
                "result": [
                    {
                        "display": "White blood cell (WBC) count",
                        "reference": "urn:uuid:a27139a2-ec70-48cd-9daa-014a76f1a6d6",
                        "type": "Observation"
                    },
                    {
                        "display": "Haemoglobin (Hb)",
                        "reference": "urn:uuid:dafffa9e-8666-4a6e-af10-93e19e951f43",
                        "type": "Observation"
                    },
                    {
                        "display": "Platelet (PLT) count",
                        "reference": "urn:uuid:4873c98d-79a4-47d4-92e6-3838c2d9a50a",
                        "type": "Observation"
                    },
                    {
                        "display": "Red blood cell (RBC) count",
                        "reference": "urn:uuid:7ee9cfc2-5ab7-47c3-ae08-76dee1920048",
                        "type": "Observation"
                    },
                    {
                        "display": "Mean cell volume (MCV)",
                        "reference": "urn:uuid:ddd6b1cd-fa4f-482f-9690-a67b642fcc7f",
                        "type": "Observation"
                    }
                ],
                "specimen": [
                    {
                        "reference": "urn:uuid:d06c5d49-4029-4f40-bb95-23135ba37042",
                        "type": "Specimen"
                    }
                ],
                "status": "final",
                "subject": {
                    "identifier": {
                        "assigner": {
                            "identifier": {
                                "system": "https://fhir.nhs.uk/Id/ods-organization-code",
                                "value": "X24"
                            }
                        },
                        "system": "https://fhir.nhs.uk/Id/nhs-number",
                        "type": {
                            "coding": [
                                {
                                    "code": "NH",
                                    "system": "http://terminology.hl7.org/CodeSystem/v2-0203"
                                }
                            ]
                        },
                        "value": "9737383257"
                    },
                    "reference": "urn:uuid:2f8f7bb9-3491-4934-bbf8-e09bf46d09fd"
                }
            }
        },
        {
            "fullUrl": "urn:uuid:8b039b2e-48a2-4124-8192-ec56201a5783",
            "resource": {
                "resourceType": "Binary",
                "contentType": "application/pdf",
                "data": "JVBERi0xLjQKJcOkw7zDtsOfCjIgMCBvYmoKPDw...EyNDk0IDAwMDAwIG4gCnRyYWlsZXIKPDwvU2l6ZS"
            }
        },
        {
            "fullUrl": "urn:uuid:c2426c7e-cb39-4d97-9dc2-d86e0b99d7e7",
            "resource": {
                "resourceType": "DocumentReference",
                "content": [
                    {
                        "attachment": {
                            "contentType": "application/pdf",
                            "url": "urn:uuid:8b039b2e-48a2-4124-8192-ec56201a5783"
                        }
                    }
                ],
                "context": {
                    "period": {
                        "end": "2018-11-09T12:38:51+00:00",
                        "start": "2018-11-09T12:38:51+00:00"
                    },
                    "related": [
                        {
                            "identifier": {
                                "assigner": {
                                    "identifier": {
                                        "system": "https://fhir.nhs.uk/Id/ods-organization-code",
                                        "value": "7A4BV"
                                    }
                                },
                                "type": {
                                    "coding": [
                                        {
                                            "code": "FILL",
                                            "system": "http://terminology.hl7.org/CodeSystem/v2-0203"
                                        }
                                    ]
                                },
                                "value": "287018"
                            },
                            "reference": "urn:uuid:78f1efd0-f16f-42c1-83ed-ebe85a356090",
                            "type": "DiagnosticReport"
                        }
                    ]
                },
                "custodian": {
                    "identifier": {
                        "system": "https://fhir.nhs.uk/Id/ods-organization-code",
                        "value": "699X0"
                    },
                    "type": "Organization"
                },
                "date": "2018-11-09T12:38:51+00:00",
                "identifier": [
                    {
                        "assigner": {
                            "identifier": {
                                "system": "https://fhir.nhs.uk/Id/ods-organization-code",
                                "value": "7A4BV"
                            }
                        },
                        "type": {
                            "coding": [
                                {
                                    "code": "FILL",
                                    "system": "http://terminology.hl7.org/CodeSystem/v2-0203"
                                }
                            ]
                        },
                        "value": "287018"
                    }
                ],
                "status": "current",
                "subject": {
                    "identifier": {
                        "assigner": {
                            "identifier": {
                                "system": "https://fhir.nhs.uk/Id/ods-organization-code",
                                "value": "X24"
                            }
                        },
                        "system": "https://fhir.nhs.uk/Id/nhs-number",
                        "type": {
                            "coding": [
                                {
                                    "code": "NH",
                                    "system": "http://terminology.hl7.org/CodeSystem/v2-0203"
                                }
                            ]
                        },
                        "value": "9737383257"
                    },
                    "reference": "urn:uuid:2f8f7bb9-3491-4934-bbf8-e09bf46d09fd"
                },
                "type": {
                    "coding": [
                        {
                            "code": "CATH",
                            "display": "Cardiac Catheter Report",
                            "system": "L"
                        }
                    ]
                }
            }
        },
        {
            "fullUrl": "urn:uuid:d1824e50-06c8-458b-bccc-88ca34375b4d",
            "resource": {
                "resourceType": "Binary",
                "contentType": "application/pdf",
                "data": "AxNi9Sb290IDE0IDAgUgovSW5mbyAxNSAwIFIKL0lEIFsgPE...KPj4Kc3RhcnR4cmVmCjEyNzg3CiUlRU9GCg=="
            }
        },
        {
            "fullUrl": "urn:uuid:36a29ea7-712d-4654-b3e6-8ad737b3ae25",
            "resource": {
                "resourceType": "DocumentReference",
                "content": [
                    {
                        "attachment": {
                            "contentType": "application/pdf",
                            "url": "urn:uuid:d1824e50-06c8-458b-bccc-88ca34375b4d"
                        }
                    }
                ],
                "context": {
                    "period": {
                        "end": "2018-11-09T12:38:51+00:00",
                        "start": "2018-11-09T12:38:51+00:00"
                    },
                    "related": [
                        {
                            "identifier": {
                                "assigner": {
                                    "identifier": {
                                        "system": "https://fhir.nhs.uk/Id/ods-organization-code",
                                        "value": "7A4BV"
                                    }
                                },
                                "type": {
                                    "coding": [
                                        {
                                            "code": "FILL",
                                            "system": "http://terminology.hl7.org/CodeSystem/v2-0203"
                                        }
                                    ]
                                },
                                "value": "287018"
                            },
                            "reference": "urn:uuid:78f1efd0-f16f-42c1-83ed-ebe85a356090",
                            "type": "DiagnosticReport"
                        }
                    ]
                },
                "custodian": {
                    "identifier": {
                        "system": "https://fhir.nhs.uk/Id/ods-organization-code",
                        "value": "699X0"
                    },
                    "type": "Organization"
                },
                "date": "2018-11-09T12:38:51+00:00",
                "identifier": [
                    {
                        "assigner": {
                            "identifier": {
                                "system": "https://fhir.nhs.uk/Id/ods-organization-code",
                                "value": "7A4BV"
                            }
                        },
                        "type": {
                            "coding": [
                                {
                                    "code": "FILL",
                                    "system": "http://terminology.hl7.org/CodeSystem/v2-0203"
                                }
                            ]
                        },
                        "value": "287018"
                    }
                ],
                "status": "current",
                "subject": {
                    "identifier": {
                        "assigner": {
                            "identifier": {
                                "system": "https://fhir.nhs.uk/Id/ods-organization-code",
                                "value": "X24"
                            }
                        },
                        "system": "https://fhir.nhs.uk/Id/nhs-number",
                        "type": {
                            "coding": [
                                {
                                    "code": "NH",
                                    "system": "http://terminology.hl7.org/CodeSystem/v2-0203"
                                }
                            ]
                        },
                        "value": "9737383257"
                    },
                    "reference": "urn:uuid:2f8f7bb9-3491-4934-bbf8-e09bf46d09fd"
                },
                "type": {
                    "coding": [
                        {
                            "code": "CATH",
                            "display": "Cardiac Catheter Report",
                            "system": "L"
                        }
                    ]
                }
            }
        },
        {
            "fullUrl": "urn:uuid:78f1efd0-f16f-42c1-83ed-ebe85a356090",
            "resource": {
                "resourceType": "DiagnosticReport",
                "category": [
                    {
                        "coding": [
                            {
                                "code": "GE",
                                "system": "http://terminology.hl7.org/CodeSystem/v2-0074"
                            }
                        ]
                    }
                ],
                "code": {
                    "coding": [
                        {
                            "code": "CATH",
                            "display": "Cardiac Catheter Report",
                            "system": "L"
                        }
                    ]
                },
                "effectiveDateTime": "2018-11-09T12:38:51+00:00",
                "extension": [
                    {
                        "extension": [
                            {
                                "url": "reference",
                                "valueReference": {
                                    "display": "Cardiac Catheter Report",
                                    "reference": "urn:uuid:c2426c7e-cb39-4d97-9dc2-d86e0b99d7e7",
                                    "type": "DocumentReference"
                                }
                            },
                            {
                                "url": "type",
                                "valueCodeableConcept": {
                                    "coding": [
                                        {
                                            "code": "SCI",
                                            "system": "http://hl7.org/fhir/diagnosticreport-relevant-information-types"
                                        }
                                    ]
                                }
                            }
                        ],
                        "url": "http://hl7.org/fhir/5.0/StructureDefinition/extension-DiagnosticReport.supportingInfo"
                    },
                    {
                        "extension": [
                            {
                                "url": "reference",
                                "valueReference": {
                                    "display": "Cardiac Catheter Report",
                                    "reference": "urn:uuid:36a29ea7-712d-4654-b3e6-8ad737b3ae25",
                                    "type": "DocumentReference"
                                }
                            },
                            {
                                "url": "type",
                                "valueCodeableConcept": {
                                    "coding": [
                                        {
                                            "code": "SCI",
                                            "system": "http://hl7.org/fhir/diagnosticreport-relevant-information-types"
                                        }
                                    ]
                                }
                            }
                        ],
                        "url": "http://hl7.org/fhir/5.0/StructureDefinition/extension-DiagnosticReport.supportingInfo"
                    }
                ],
                "identifier": [
                    {
                        "assigner": {
                            "identifier": {
                                "system": "https://fhir.nhs.uk/Id/ods-organization-code",
                                "value": "7A4BV"
                            }
                        },
                        "type": {
                            "coding": [
                                {
                                    "code": "FILL",
                                    "system": "http://terminology.hl7.org/CodeSystem/v2-0203"
                                }
                            ]
                        },
                        "value": "287018"
                    }
                ],
                "issued": "2018-11-09T12:48:18+00:00",
                "performer": [
                    {
                        "display": "NHS North West Genomics",
                        "identifier": {
                            "system": "https://fhir.nhs.uk/Id/ods-organization-code",
                            "value": "699X0"
                        },
                        "type": "Organization"
                    }
                ],
                "status": "partial",
                "subject": {
                    "identifier": {
                        "assigner": {
                            "identifier": {
                                "system": "https://fhir.nhs.uk/Id/ods-organization-code",
                                "value": "X24"
                            }
                        },
                        "system": "https://fhir.nhs.uk/Id/nhs-number",
                        "type": {
                            "coding": [
                                {
                                    "code": "NH",
                                    "system": "http://terminology.hl7.org/CodeSystem/v2-0203"
                                }
                            ]
                        },
                        "value": "9737383257"
                    },
                    "reference": "urn:uuid:2f8f7bb9-3491-4934-bbf8-e09bf46d09fd"
                }
            }
        },
        {
            "fullUrl": "urn:uuid:32cc0cbc-193b-442b-a881-ac3a0115b77d",
            "resource": {
                "resourceType": "Binary",
                "contentType": "application/pdf",
                "data": "JVBERi0xLjQKJcOkw7zDtsOfCjIgMCBvYm...VmCjEyNzg3CiUlRU9GCg=="
            }
        },
        {
            "fullUrl": "urn:uuid:f12ab786-6110-4327-9d72-1031a1508049",
            "resource": {
                "resourceType": "DocumentReference",
                "content": [
                    {
                        "attachment": {
                            "contentType": "application/pdf",
                            "url": "urn:uuid:32cc0cbc-193b-442b-a881-ac3a0115b77d"
                        }
                    }
                ],
                "context": {
                    "period": {
                        "end": "2018-11-09T12:38:51+00:00",
                        "start": "2018-11-09T12:38:51+00:00"
                    },
                    "related": [
                        {
                            "identifier": {
                                "assigner": {
                                    "identifier": {
                                        "system": "https://fhir.nhs.uk/Id/ods-organization-code",
                                        "value": "7A4BV"
                                    }
                                },
                                "type": {
                                    "coding": [
                                        {
                                            "code": "FILL",
                                            "system": "http://terminology.hl7.org/CodeSystem/v2-0203"
                                        }
                                    ]
                                },
                                "value": "A28701"
                            },
                            "reference": "urn:uuid:0cf2d0e5-1dac-4db4-a791-d0ab10c458d8",
                            "type": "DiagnosticReport"
                        }
                    ]
                },
                "custodian": {
                    "identifier": {
                        "system": "https://fhir.nhs.uk/Id/ods-organization-code",
                        "value": "699X0"
                    },
                    "type": "Organization"
                },
                "date": "2018-11-09T12:38:51+00:00",
                "identifier": [
                    {
                        "assigner": {
                            "identifier": {
                                "system": "https://fhir.nhs.uk/Id/ods-organization-code",
                                "value": "7A4BV"
                            }
                        },
                        "type": {
                            "coding": [
                                {
                                    "code": "FILL",
                                    "system": "http://terminology.hl7.org/CodeSystem/v2-0203"
                                }
                            ]
                        },
                        "value": "A28701"
                    }
                ],
                "status": "current",
                "subject": {
                    "identifier": {
                        "assigner": {
                            "identifier": {
                                "system": "https://fhir.nhs.uk/Id/ods-organization-code",
                                "value": "X24"
                            }
                        },
                        "system": "https://fhir.nhs.uk/Id/nhs-number",
                        "type": {
                            "coding": [
                                {
                                    "code": "NH",
                                    "system": "http://terminology.hl7.org/CodeSystem/v2-0203"
                                }
                            ]
                        },
                        "value": "9737383257"
                    },
                    "reference": "urn:uuid:2f8f7bb9-3491-4934-bbf8-e09bf46d09fd"
                },
                "type": {
                    "coding": [
                        {
                            "code": "Appointment",
                            "display": "Appointment Letter",
                            "system": "L"
                        }
                    ]
                }
            }
        },
        {
            "fullUrl": "urn:uuid:0cf2d0e5-1dac-4db4-a791-d0ab10c458d8",
            "resource": {
                "resourceType": "DiagnosticReport",
                "category": [
                    {
                        "coding": [
                            {
                                "code": "GE",
                                "system": "http://terminology.hl7.org/CodeSystem/v2-0074"
                            }
                        ]
                    }
                ],
                "code": {
                    "coding": [
                        {
                            "code": "Appointment",
                            "display": "AppointmentLetter",
                            "system": "L"
                        }
                    ]
                },
                "effectiveDateTime": "2018-11-09T12:38:51+00:00",
                "extension": [
                    {
                        "extension": [
                            {
                                "url": "reference",
                                "valueReference": {
                                    "display": "Appointment Letter",
                                    "reference": "urn:uuid:f12ab786-6110-4327-9d72-1031a1508049",
                                    "type": "DocumentReference"
                                }
                            },
                            {
                                "url": "type",
                                "valueCodeableConcept": {
                                    "coding": [
                                        {
                                            "code": "SCI",
                                            "system": "http://hl7.org/fhir/diagnosticreport-relevant-information-types"
                                        }
                                    ]
                                }
                            }
                        ],
                        "url": "http://hl7.org/fhir/5.0/StructureDefinition/extension-DiagnosticReport.supportingInfo"
                    }
                ],
                "identifier": [
                    {
                        "assigner": {
                            "identifier": {
                                "system": "https://fhir.nhs.uk/Id/ods-organization-code",
                                "value": "7A4BV"
                            }
                        },
                        "type": {
                            "coding": [
                                {
                                    "code": "FILL",
                                    "system": "http://terminology.hl7.org/CodeSystem/v2-0203"
                                }
                            ]
                        },
                        "value": "A28701"
                    }
                ],
                "issued": "2018-11-09T12:48:18+00:00",
                "performer": [
                    {
                        "display": "NHS North West Genomics",
                        "identifier": {
                            "system": "https://fhir.nhs.uk/Id/ods-organization-code",
                            "value": "699X0"
                        },
                        "type": "Organization"
                    }
                ],
                "status": "partial",
                "subject": {
                    "identifier": {
                        "assigner": {
                            "identifier": {
                                "system": "https://fhir.nhs.uk/Id/ods-organization-code",
                                "value": "X24"
                            }
                        },
                        "system": "https://fhir.nhs.uk/Id/nhs-number",
                        "type": {
                            "coding": [
                                {
                                    "code": "NH",
                                    "system": "http://terminology.hl7.org/CodeSystem/v2-0203"
                                }
                            ]
                        },
                        "value": "9737383257"
                    },
                    "reference": "urn:uuid:2f8f7bb9-3491-4934-bbf8-e09bf46d09fd"
                }
            }
        },
        {
            "fullUrl": "urn:uuid:52db11d2-5e65-4781-b900-0de02df7ece4",
            "resource": {
                "resourceType": "Observation",
                "code": {
                    "coding": [
                        {
                            "code": "INTER",
                            "display": "INTERPRETATION",
                            "system": "L"
                        }
                    ]
                },
                "effectiveDateTime": "2019-05-14T10:24:17+00:00",
                "identifier": [
                    {
                        "type": {
                            "coding": [
                                {
                                    "code": "FILL",
                                    "system": "http://terminology.hl7.org/CodeSystem/v2-0203"
                                }
                            ]
                        },
                        "value": "190000041:27491"
                    }
                ],
                "note": [
                    {
                        "text": "Interpreted by: ACME Super User, Signed on 05/14/2019 at 10:24\\n"
                    }
                ],
                "performer": [
                    {
                        "identifier": {
                            "system": "https://fhir.nhs.uk/Id/ods-organization-code",
                            "value": "699X0"
                        },
                        "type": "Organization"
                    }
                ],
                "status": "final",
                "subject": {
                    "identifier": {
                        "assigner": {
                            "identifier": {
                                "system": "https://fhir.nhs.uk/Id/ods-organization-code",
                                "value": "X24"
                            }
                        },
                        "system": "https://fhir.nhs.uk/Id/nhs-number",
                        "type": {
                            "coding": [
                                {
                                    "code": "NH",
                                    "system": "http://terminology.hl7.org/CodeSystem/v2-0203"
                                }
                            ]
                        },
                        "value": "9737383257"
                    },
                    "reference": "urn:uuid:2f8f7bb9-3491-4934-bbf8-e09bf46d09fd"
                },
                "valueString": "rwtu"
            }
        },
        {
            "fullUrl": "urn:uuid:cea97387-6ac6-4160-8b6e-525ff6e246cb",
            "resource": {
                "resourceType": "Observation",
                "code": {
                    "coding": [
                        {
                            "code": "RESTE",
                            "display": "Reason for testing",
                            "system": "L"
                        }
                    ]
                },
                "effectiveDateTime": "2019-05-14T10:24:17+00:00",
                "identifier": [
                    {
                        "type": {
                            "coding": [
                                {
                                    "code": "FILL",
                                    "system": "http://terminology.hl7.org/CodeSystem/v2-0203"
                                }
                            ]
                        },
                        "value": "190000041:27491"
                    }
                ],
                "performer": [
                    {
                        "identifier": {
                            "system": "https://fhir.nhs.uk/Id/ods-organization-code",
                            "value": "699X0"
                        },
                        "type": "Organization"
                    }
                ],
                "status": "final",
                "subject": {
                    "identifier": {
                        "assigner": {
                            "identifier": {
                                "system": "https://fhir.nhs.uk/Id/ods-organization-code",
                                "value": "X24"
                            }
                        },
                        "system": "https://fhir.nhs.uk/Id/nhs-number",
                        "type": {
                            "coding": [
                                {
                                    "code": "NH",
                                    "system": "http://terminology.hl7.org/CodeSystem/v2-0203"
                                }
                            ]
                        },
                        "value": "9737383257"
                    },
                    "reference": "urn:uuid:2f8f7bb9-3491-4934-bbf8-e09bf46d09fd"
                },
                "valueString": "erw"
            }
        },
        {
            "fullUrl": "urn:uuid:573316fe-b3e6-4b52-b1e9-8d09704117f7",
            "resource": {
                "resourceType": "Observation",
                "code": {
                    "coding": [
                        {
                            "code": "TMETH",
                            "display": "Test Methodology",
                            "system": "L"
                        }
                    ]
                },
                "effectiveDateTime": "2019-05-14T10:24:17+00:00",
                "identifier": [
                    {
                        "type": {
                            "coding": [
                                {
                                    "code": "FILL",
                                    "system": "http://terminology.hl7.org/CodeSystem/v2-0203"
                                }
                            ]
                        },
                        "value": "190000041:27491"
                    }
                ],
                "performer": [
                    {
                        "identifier": {
                            "system": "https://fhir.nhs.uk/Id/ods-organization-code",
                            "value": "699X0"
                        },
                        "type": "Organization"
                    }
                ],
                "status": "final",
                "subject": {
                    "identifier": {
                        "assigner": {
                            "identifier": {
                                "system": "https://fhir.nhs.uk/Id/ods-organization-code",
                                "value": "X24"
                            }
                        },
                        "system": "https://fhir.nhs.uk/Id/nhs-number",
                        "type": {
                            "coding": [
                                {
                                    "code": "NH",
                                    "system": "http://terminology.hl7.org/CodeSystem/v2-0203"
                                }
                            ]
                        },
                        "value": "9737383257"
                    },
                    "reference": "urn:uuid:2f8f7bb9-3491-4934-bbf8-e09bf46d09fd"
                },
                "valueString": "sfjg"
            }
        },
        {
            "fullUrl": "urn:uuid:2a297d64-51f9-4c7c-a299-6ae881c0a750",
            "resource": {
                "resourceType": "Observation",
                "code": {
                    "coding": [
                        {
                            "code": "RESUM",
                            "display": "Result summary",
                            "system": "L"
                        }
                    ]
                },
                "effectiveDateTime": "2019-05-14T10:24:17+00:00",
                "identifier": [
                    {
                        "type": {
                            "coding": [
                                {
                                    "code": "FILL",
                                    "system": "http://terminology.hl7.org/CodeSystem/v2-0203"
                                }
                            ]
                        },
                        "value": "190000041:27491"
                    }
                ],
                "performer": [
                    {
                        "identifier": {
                            "system": "https://fhir.nhs.uk/Id/ods-organization-code",
                            "value": "699X0"
                        },
                        "type": "Organization"
                    }
                ],
                "status": "final",
                "subject": {
                    "identifier": {
                        "assigner": {
                            "identifier": {
                                "system": "https://fhir.nhs.uk/Id/ods-organization-code",
                                "value": "X24"
                            }
                        },
                        "system": "https://fhir.nhs.uk/Id/nhs-number",
                        "type": {
                            "coding": [
                                {
                                    "code": "NH",
                                    "system": "http://terminology.hl7.org/CodeSystem/v2-0203"
                                }
                            ]
                        },
                        "value": "9737383257"
                    },
                    "reference": "urn:uuid:2f8f7bb9-3491-4934-bbf8-e09bf46d09fd"
                },
                "valueString": "tyityu"
            }
        },
        {
            "fullUrl": "urn:uuid:3ee11c8f-5879-4ec3-8407-50f2b27c576e",
            "resource": {
                "resourceType": "Observation",
                "code": {
                    "coding": [
                        {
                            "code": "PATPH",
                            "display": "Patient phenotype",
                            "system": "L"
                        }
                    ]
                },
                "effectiveDateTime": "2019-05-14T10:24:17+00:00",
                "identifier": [
                    {
                        "type": {
                            "coding": [
                                {
                                    "code": "FILL",
                                    "system": "http://terminology.hl7.org/CodeSystem/v2-0203"
                                }
                            ]
                        },
                        "value": "190000041:27491"
                    }
                ],
                "performer": [
                    {
                        "identifier": {
                            "system": "https://fhir.nhs.uk/Id/ods-organization-code",
                            "value": "699X0"
                        },
                        "type": "Organization"
                    }
                ],
                "status": "final",
                "subject": {
                    "identifier": {
                        "assigner": {
                            "identifier": {
                                "system": "https://fhir.nhs.uk/Id/ods-organization-code",
                                "value": "X24"
                            }
                        },
                        "system": "https://fhir.nhs.uk/Id/nhs-number",
                        "type": {
                            "coding": [
                                {
                                    "code": "NH",
                                    "system": "http://terminology.hl7.org/CodeSystem/v2-0203"
                                }
                            ]
                        },
                        "value": "9737383257"
                    },
                    "reference": "urn:uuid:2f8f7bb9-3491-4934-bbf8-e09bf46d09fd"
                },
                "valueString": "ghfjg"
            }
        },
        {
            "fullUrl": "urn:uuid:d45e9832-bb3b-4c54-9535-de3a845c35fd",
            "resource": {
                "resourceType": "Observation",
                "code": {
                    "coding": [
                        {
                            "code": "FOLL",
                            "display": "Follow-up",
                            "system": "L"
                        }
                    ]
                },
                "effectiveDateTime": "2019-05-14T10:24:17+00:00",
                "identifier": [
                    {
                        "type": {
                            "coding": [
                                {
                                    "code": "FILL",
                                    "system": "http://terminology.hl7.org/CodeSystem/v2-0203"
                                }
                            ]
                        },
                        "value": "190000041:27491"
                    }
                ],
                "performer": [
                    {
                        "identifier": {
                            "system": "https://fhir.nhs.uk/Id/ods-organization-code",
                            "value": "699X0"
                        },
                        "type": "Organization"
                    }
                ],
                "status": "final",
                "subject": {
                    "identifier": {
                        "assigner": {
                            "identifier": {
                                "system": "https://fhir.nhs.uk/Id/ods-organization-code",
                                "value": "X24"
                            }
                        },
                        "system": "https://fhir.nhs.uk/Id/nhs-number",
                        "type": {
                            "coding": [
                                {
                                    "code": "NH",
                                    "system": "http://terminology.hl7.org/CodeSystem/v2-0203"
                                }
                            ]
                        },
                        "value": "9737383257"
                    },
                    "reference": "urn:uuid:2f8f7bb9-3491-4934-bbf8-e09bf46d09fd"
                },
                "valueString": "yue"
            }
        },
        {
            "fullUrl": "urn:uuid:06393d67-69fa-4f3f-9c1f-6ff8d33c3f93",
            "resource": {
                "resourceType": "Binary",
                "contentType": "application/pdf",
                "data": ""
            }
        },
        {
            "fullUrl": "urn:uuid:02fd6518-25b9-4294-aca1-dfe31daf5832",
            "resource": {
                "resourceType": "DocumentReference",
                "content": [
                    {
                        "attachment": {
                            "contentType": "application/pdf",
                            "url": "urn:uuid:06393d67-69fa-4f3f-9c1f-6ff8d33c3f93"
                        }
                    }
                ],
                "context": {
                    "period": {
                        "end": "2019-05-14T10:24:17+00:00",
                        "start": "2019-05-14T10:24:17+00:00"
                    },
                    "related": [
                        {
                            "identifier": {
                                "type": {
                                    "coding": [
                                        {
                                            "code": "FILL",
                                            "system": "http://terminology.hl7.org/CodeSystem/v2-0203"
                                        }
                                    ]
                                },
                                "value": "190000041:27491"
                            },
                            "reference": "urn:uuid:4b242ec0-c04d-4cc4-8617-a47055130886",
                            "type": "DiagnosticReport"
                        }
                    ]
                },
                "custodian": {
                    "identifier": {
                        "system": "https://fhir.nhs.uk/Id/ods-organization-code",
                        "value": "699X0"
                    },
                    "type": "Organization"
                },
                "date": "2019-05-14T10:24:17+00:00",
                "identifier": [
                    {
                        "type": {
                            "coding": [
                                {
                                    "code": "FILL",
                                    "system": "http://terminology.hl7.org/CodeSystem/v2-0203"
                                }
                            ]
                        },
                        "value": "190000041:27491"
                    }
                ],
                "status": "current",
                "subject": {
                    "identifier": {
                        "assigner": {
                            "identifier": {
                                "system": "https://fhir.nhs.uk/Id/ods-organization-code",
                                "value": "X24"
                            }
                        },
                        "system": "https://fhir.nhs.uk/Id/nhs-number",
                        "type": {
                            "coding": [
                                {
                                    "code": "NH",
                                    "system": "http://terminology.hl7.org/CodeSystem/v2-0203"
                                }
                            ]
                        },
                        "value": "9737383257"
                    },
                    "reference": "urn:uuid:2f8f7bb9-3491-4934-bbf8-e09bf46d09fd"
                },
                "type": {
                    "coding": [
                        {
                            "code": "823781000000108",
                            "display": "MDT (multidisciplinary team) letter",
                            "system": "http://snomed.info/sct"
                        }
                    ]
                }
            }
        },
        {
            "fullUrl": "urn:uuid:6e4a6e6f-a244-4a31-be8c-e4bdac271138",
            "resource": {
                "resourceType": "Observation",
                "code": {
                    "coding": [
                        {
                            "code": "RESLT",
                            "display": "Result",
                            "system": "L"
                        }
                    ]
                },
                "effectiveDateTime": "2019-05-14T10:24:17+00:00",
                "identifier": [
                    {
                        "type": {
                            "coding": [
                                {
                                    "code": "FILL",
                                    "system": "http://terminology.hl7.org/CodeSystem/v2-0203"
                                }
                            ]
                        },
                        "value": "190000041:27491"
                    }
                ],
                "performer": [
                    {
                        "identifier": {
                            "system": "https://fhir.nhs.uk/Id/ods-organization-code",
                            "value": "699X0"
                        },
                        "type": "Organization"
                    }
                ],
                "status": "final",
                "subject": {
                    "identifier": {
                        "assigner": {
                            "identifier": {
                                "system": "https://fhir.nhs.uk/Id/ods-organization-code",
                                "value": "X24"
                            }
                        },
                        "system": "https://fhir.nhs.uk/Id/nhs-number",
                        "type": {
                            "coding": [
                                {
                                    "code": "NH",
                                    "system": "http://terminology.hl7.org/CodeSystem/v2-0203"
                                }
                            ]
                        },
                        "value": "9737383257"
                    },
                    "reference": "urn:uuid:2f8f7bb9-3491-4934-bbf8-e09bf46d09fd"
                },
                "valueString": "dhjhd"
            }
        },
        {
            "fullUrl": "urn:uuid:f85739cc-95a5-46a8-8650-88c9ad1f826a",
            "resource": {
                "resourceType": "Observation",
                "code": {
                    "coding": [
                        {
                            "code": "GRFALN1",
                            "display": "AlphaNumeric Generic Result Field 1",
                            "system": "L"
                        }
                    ]
                },
                "effectiveDateTime": "2019-05-14T10:23:35+00:00",
                "identifier": [
                    {
                        "type": {
                            "coding": [
                                {
                                    "code": "FILL",
                                    "system": "http://terminology.hl7.org/CodeSystem/v2-0203"
                                }
                            ]
                        },
                        "value": "190000041:27491"
                    }
                ],
                "performer": [
                    {
                        "identifier": {
                            "system": "https://fhir.nhs.uk/Id/ods-organization-code",
                            "value": "699X0"
                        },
                        "type": "Organization"
                    }
                ],
                "status": "final",
                "subject": {
                    "identifier": {
                        "assigner": {
                            "identifier": {
                                "system": "https://fhir.nhs.uk/Id/ods-organization-code",
                                "value": "X24"
                            }
                        },
                        "system": "https://fhir.nhs.uk/Id/nhs-number",
                        "type": {
                            "coding": [
                                {
                                    "code": "NH",
                                    "system": "http://terminology.hl7.org/CodeSystem/v2-0203"
                                }
                            ]
                        },
                        "value": "9737383257"
                    },
                    "reference": "urn:uuid:2f8f7bb9-3491-4934-bbf8-e09bf46d09fd"
                },
                "valueString": "234dfsgsg"
            }
        },
        {
            "fullUrl": "urn:uuid:e7b139d6-ab87-4855-b1c4-111b62ac385f",
            "resource": {
                "resourceType": "Binary",
                "contentType": "application/pdf",
                "data": "JVBERi0xLjMKJeLjz9MKMiAwIG9iago8PC..."
            }
        },
        {
            "fullUrl": "urn:uuid:cd640ea6-c3af-4e10-a5d0-950b466fc690",
            "resource": {
                "resourceType": "DocumentReference",
                "content": [
                    {
                        "attachment": {
                            "contentType": "application/pdf",
                            "url": "urn:uuid:e7b139d6-ab87-4855-b1c4-111b62ac385f"
                        }
                    }
                ],
                "context": {
                    "period": {
                        "end": "2019-05-14T10:23:35+00:00",
                        "start": "2019-05-14T10:23:35+00:00"
                    },
                    "related": [
                        {
                            "identifier": {
                                "type": {
                                    "coding": [
                                        {
                                            "code": "FILL",
                                            "system": "http://terminology.hl7.org/CodeSystem/v2-0203"
                                        }
                                    ]
                                },
                                "value": "190000041:27491"
                            },
                            "reference": "urn:uuid:4b242ec0-c04d-4cc4-8617-a47055130886",
                            "type": "DiagnosticReport"
                        }
                    ]
                },
                "custodian": {
                    "identifier": {
                        "system": "https://fhir.nhs.uk/Id/ods-organization-code",
                        "value": "699X0"
                    },
                    "type": "Organization"
                },
                "date": "2019-05-14T10:23:35+00:00",
                "identifier": [
                    {
                        "type": {
                            "coding": [
                                {
                                    "code": "FILL",
                                    "system": "http://terminology.hl7.org/CodeSystem/v2-0203"
                                }
                            ]
                        },
                        "value": "190000041:27491"
                    }
                ],
                "status": "current",
                "subject": {
                    "identifier": {
                        "assigner": {
                            "identifier": {
                                "system": "https://fhir.nhs.uk/Id/ods-organization-code",
                                "value": "X24"
                            }
                        },
                        "system": "https://fhir.nhs.uk/Id/nhs-number",
                        "type": {
                            "coding": [
                                {
                                    "code": "NH",
                                    "system": "http://terminology.hl7.org/CodeSystem/v2-0203"
                                }
                            ]
                        },
                        "value": "9737383257"
                    },
                    "reference": "urn:uuid:2f8f7bb9-3491-4934-bbf8-e09bf46d09fd"
                },
                "type": {
                    "coding": [
                        {
                            "code": "MOLT",
                            "display": "MOL TEST NAME",
                            "system": "L"
                        }
                    ]
                }
            }
        },
        {
            "fullUrl": "urn:uuid:b76620d2-5e3d-48a0-a143-bbc6d1ca0051",
            "resource": {
                "resourceType": "DocumentReference",
                "content": [
                    {
                        "attachment": {
                            "url": "http://documents.example.com/document123.pdf"
                        }
                    }
                ],
                "context": {
                    "period": {
                        "end": "2019-05-14T10:23:35+00:00",
                        "start": "2019-05-14T10:23:35+00:00"
                    },
                    "related": [
                        {
                            "identifier": {
                                "type": {
                                    "coding": [
                                        {
                                            "code": "FILL",
                                            "system": "http://terminology.hl7.org/CodeSystem/v2-0203"
                                        }
                                    ]
                                },
                                "value": "190000041:27491"
                            },
                            "reference": "urn:uuid:4b242ec0-c04d-4cc4-8617-a47055130886",
                            "type": "DiagnosticReport"
                        }
                    ]
                },
                "custodian": {
                    "identifier": {
                        "system": "https://fhir.nhs.uk/Id/ods-organization-code",
                        "value": "699X0"
                    },
                    "type": "Organization"
                },
                "date": "2019-05-14T10:23:35+00:00",
                "identifier": [
                    {
                        "type": {
                            "coding": [
                                {
                                    "code": "FILL",
                                    "system": "http://terminology.hl7.org/CodeSystem/v2-0203"
                                }
                            ]
                        },
                        "value": "190000041:27491"
                    }
                ],
                "status": "current",
                "subject": {
                    "identifier": {
                        "assigner": {
                            "identifier": {
                                "system": "https://fhir.nhs.uk/Id/ods-organization-code",
                                "value": "X24"
                            }
                        },
                        "system": "https://fhir.nhs.uk/Id/nhs-number",
                        "type": {
                            "coding": [
                                {
                                    "code": "NH",
                                    "system": "http://terminology.hl7.org/CodeSystem/v2-0203"
                                }
                            ]
                        },
                        "value": "9737383257"
                    },
                    "reference": "urn:uuid:2f8f7bb9-3491-4934-bbf8-e09bf46d09fd"
                },
                "type": {
                    "coding": [
                        {
                            "code": "MOLT",
                            "display": "MOL TEST NAME",
                            "system": "L"
                        }
                    ]
                }
            }
        },
        {
            "fullUrl": "urn:uuid:666dc3c1-37c1-4930-9a7f-c8cc7a16e1d6",
            "resource": {
                "resourceType": "Specimen",
                "identifier": [
                    {
                        "type": {
                            "coding": [
                                {
                                    "code": "PLAC",
                                    "system": "http://terminology.hl7.org/CodeSystem/v2-0203"
                                }
                            ]
                        },
                        "value": "190000041:27491"
                    }
                ],
                "receivedTime": "2019-05-14T10:20:00+00:00",
                "status": "unavailable",
                "subject": {
                    "identifier": {
                        "assigner": {
                            "identifier": {
                                "system": "https://fhir.nhs.uk/Id/ods-organization-code",
                                "value": "X24"
                            }
                        },
                        "system": "https://fhir.nhs.uk/Id/nhs-number",
                        "type": {
                            "coding": [
                                {
                                    "code": "NH",
                                    "system": "http://terminology.hl7.org/CodeSystem/v2-0203"
                                }
                            ]
                        },
                        "value": "9737383257"
                    },
                    "reference": "urn:uuid:2f8f7bb9-3491-4934-bbf8-e09bf46d09fd"
                }
            }
        },
        {
            "fullUrl": "urn:uuid:4b242ec0-c04d-4cc4-8617-a47055130886",
            "resource": {
                "resourceType": "DiagnosticReport",
                "category": [
                    {
                        "coding": [
                            {
                                "code": "GE",
                                "system": "http://terminology.hl7.org/CodeSystem/v2-0074"
                            }
                        ]
                    }
                ],
                "code": {
                    "coding": [
                        {
                            "code": "MOLT",
                            "display": "MOL TEST NAME",
                            "system": "L"
                        }
                    ]
                },
                "effectiveDateTime": "2019-05-14T10:20:00+00:00",
                "extension": [
                    {
                        "extension": [
                            {
                                "url": "reference",
                                "valueReference": {
                                    "display": "MDT (multidisciplinary team) letter",
                                    "reference": "urn:uuid:02fd6518-25b9-4294-aca1-dfe31daf5832",
                                    "type": "DocumentReference"
                                }
                            },
                            {
                                "url": "type",
                                "valueCodeableConcept": {
                                    "coding": [
                                        {
                                            "code": "SCI",
                                            "system": "http://hl7.org/fhir/diagnosticreport-relevant-information-types"
                                        }
                                    ]
                                }
                            }
                        ],
                        "url": "http://hl7.org/fhir/5.0/StructureDefinition/extension-DiagnosticReport.supportingInfo"
                    },
                    {
                        "extension": [
                            {
                                "url": "reference",
                                "valueReference": {
                                    "display": "MOL TEST NAME",
                                    "reference": "urn:uuid:cd640ea6-c3af-4e10-a5d0-950b466fc690",
                                    "type": "DocumentReference"
                                }
                            },
                            {
                                "url": "type",
                                "valueCodeableConcept": {
                                    "coding": [
                                        {
                                            "code": "SCI",
                                            "system": "http://hl7.org/fhir/diagnosticreport-relevant-information-types"
                                        }
                                    ]
                                }
                            }
                        ],
                        "url": "http://hl7.org/fhir/5.0/StructureDefinition/extension-DiagnosticReport.supportingInfo"
                    },
                    {
                        "extension": [
                            {
                                "url": "reference",
                                "valueReference": {
                                    "display": "MOL TEST NAME",
                                    "reference": "urn:uuid:b76620d2-5e3d-48a0-a143-bbc6d1ca0051",
                                    "type": "DocumentReference"
                                }
                            },
                            {
                                "url": "type",
                                "valueCodeableConcept": {
                                    "coding": [
                                        {
                                            "code": "SCI",
                                            "system": "http://hl7.org/fhir/diagnosticreport-relevant-information-types"
                                        }
                                    ]
                                }
                            }
                        ],
                        "url": "http://hl7.org/fhir/5.0/StructureDefinition/extension-DiagnosticReport.supportingInfo"
                    }
                ],
                "identifier": [
                    {
                        "type": {
                            "coding": [
                                {
                                    "code": "FILL",
                                    "system": "http://terminology.hl7.org/CodeSystem/v2-0203"
                                }
                            ]
                        },
                        "value": "190000041:27491"
                    }
                ],
                "issued": "2019-05-14T10:24:17+00:00",
                "performer": [
                    {
                        "extension": [
                            {
                                "url": "http://hl7.org/fhir/StructureDefinition/event-performerFunction",
                                "valueCodeableConcept": {
                                    "coding": [
                                        {
                                            "code": "SPRF",
                                            "system": "http://terminology.hl7.org/CodeSystem/v3-ParticipationType"
                                        }
                                    ]
                                }
                            }
                        ]
                    },
                    {
                        "display": "NHS North West Genomics",
                        "identifier": {
                            "system": "https://fhir.nhs.uk/Id/ods-organization-code",
                            "value": "699X0"
                        },
                        "type": "Organization"
                    }
                ],
                "result": [
                    {
                        "display": "INTERPRETATION",
                        "reference": "urn:uuid:52db11d2-5e65-4781-b900-0de02df7ece4",
                        "type": "Observation"
                    },
                    {
                        "display": "Reason for testing",
                        "reference": "urn:uuid:cea97387-6ac6-4160-8b6e-525ff6e246cb",
                        "type": "Observation"
                    },
                    {
                        "display": "Test Methodology",
                        "reference": "urn:uuid:573316fe-b3e6-4b52-b1e9-8d09704117f7",
                        "type": "Observation"
                    },
                    {
                        "display": "Result summary",
                        "reference": "urn:uuid:2a297d64-51f9-4c7c-a299-6ae881c0a750",
                        "type": "Observation"
                    },
                    {
                        "display": "Patient phenotype",
                        "reference": "urn:uuid:3ee11c8f-5879-4ec3-8407-50f2b27c576e",
                        "type": "Observation"
                    },
                    {
                        "display": "Follow-up",
                        "reference": "urn:uuid:d45e9832-bb3b-4c54-9535-de3a845c35fd",
                        "type": "Observation"
                    },
                    {
                        "display": "Result",
                        "reference": "urn:uuid:6e4a6e6f-a244-4a31-be8c-e4bdac271138",
                        "type": "Observation"
                    },
                    {
                        "display": "AlphaNumeric Generic Result Field 1",
                        "reference": "urn:uuid:f85739cc-95a5-46a8-8650-88c9ad1f826a",
                        "type": "Observation"
                    }
                ],
                "specimen": [
                    {
                        "reference": "urn:uuid:666dc3c1-37c1-4930-9a7f-c8cc7a16e1d6",
                        "type": "Specimen"
                    }
                ],
                "status": "final",
                "subject": {
                    "identifier": {
                        "assigner": {
                            "identifier": {
                                "system": "https://fhir.nhs.uk/Id/ods-organization-code",
                                "value": "X24"
                            }
                        },
                        "system": "https://fhir.nhs.uk/Id/nhs-number",
                        "type": {
                            "coding": [
                                {
                                    "code": "NH",
                                    "system": "http://terminology.hl7.org/CodeSystem/v2-0203"
                                }
                            ]
                        },
                        "value": "9737383257"
                    },
                    "reference": "urn:uuid:2f8f7bb9-3491-4934-bbf8-e09bf46d09fd"
                }
            }
        }
    ],
    "identifier": {
        "value": "5051095-201905141025"
    },
    "timestamp": "2019-05-14T10:25:27+00:00",
    "type": "message"
}