{
    "resourceType": "Bundle",
    "entry": [
        {
            "fullUrl": "urn:uuid:70c5c3a7-501e-41cc-9257-173c6f35df90",
            "resource": {
                "resourceType": "MessageHeader",
                "destination": [
                    {
                        "endpoint": "https//fhir.mft.nhs.uk/Endpoint/EPIC",
                        "receiver": {
                            "identifier": {
                                "system": "https://fhir.nhs.uk/Id/ods-organization-code",
                                "value": "699X0"
                            }
                        }
                    }
                ],
                "eventCoding": {
                    "code": "T02",
                    "system": "http://terminology.hl7.org/CodeSystem/v2-0003"
                },
                "focus": [
                    {
                        "reference": "urn:uuid:8982e58e-320f-4713-88af-94f6d61d97f2"
                    }
                ],
                "sender": {
                    "identifier": {
                        "system": "https://fhir.nhs.uk/Id/ods-organization-code",
                        "value": "699X0"
                    }
                },
                "source": {
                    "endpoint": "https://fhir.nwgenomics.nhs.uk/Endpoint/IGENE",
                    "software": "NW GLH"
                }
            }
        },
        {
            "fullUrl": "urn:uuid:3b1288e5-603e-44c7-adef-75485904d74d",
            "resource": {
                "resourceType": "Patient",
                "birthDate": "1942-06-18",
                "gender": "unknown",
                "identifier": [
                    {
                        "system": "https://fhir.nhs.uk/Id/nhs-number",
                        "type": {
                            "coding": [
                                {
                                    "code": "NH",
                                    "system": "http://terminology.hl7.org/CodeSystem/v2-0203"
                                }
                            ]
                        },
                        "value": "9737383206"
                    }
                ],
                "name": [
                    {
                        "family": "LIVERPOOL",
                        "given": [
                            "NED"
                        ]
                    }
                ]
            }
        },
        {
            "fullUrl": "urn:uuid:7d9a06a1-eb17-415a-9345-fe5423da454c",
            "resource": {
                "resourceType": "DocumentReference",
                "context": {
                    "period": {
                        "end": "2025-10-14T15:59:16+00:00",
                        "start": "2025-10-14T15:59:16+00:00"
                    },
                    "related": [
                        {
                            "identifier": {
                                "assigner": {
                                    "identifier": {
                                        "system": "https://fhir.nhs.uk/Id/ods-organization-code",
                                        "value": "REP"
                                    }
                                },
                                "type": {
                                    "coding": [
                                        {
                                            "code": "PLAC",
                                            "system": "http://terminology.hl7.org/CodeSystem/v2-0203"
                                        }
                                    ]
                                },
                                "value": "1000152870"
                            },
                            "reference": "urn:uuid:0bb75f1a-a766-4a2f-b66f-fc55064c956e",
                            "type": "ServiceRequest"
                        },
                        {
                            "identifier": {
                                "assigner": {
                                    "identifier": {
                                        "system": "https://fhir.nhs.uk/Id/ods-organization-code",
                                        "value": "699X0"
                                    }
                                },
                                "system": "https://fhir.nwgenomics.nhs.uk/iGene/ReportIdentifier",
                                "type": {
                                    "coding": [
                                        {
                                            "code": "FILL",
                                            "system": "http://terminology.hl7.org/CodeSystem/v2-0203"
                                        }
                                    ]
                                },
                                "value": "T25-0208"
                            },
                            "reference": "urn:uuid:8982e58e-320f-4713-88af-94f6d61d97f2",
                            "type": "DiagnosticReport"
                        }
                    ]
                },
                "custodian": {
                    "identifier": {
                        "system": "https://fhir.nhs.uk/Id/ods-organization-code",
                        "value": "699X0"
                    },
                    "type": "Organization"
                },
                "date": "2025-10-14T15:59:16+00:00",
                "identifier": [
                    {
                        "assigner": {
                            "identifier": {
                                "system": "https://fhir.nhs.uk/Id/ods-organization-code",
                                "value": "699X0"
                            }
                        },
                        "system": "https://fhir.nwgenomics.nhs.uk/iGene/ReportIdentifier",
                        "type": {
                            "coding": [
                                {
                                    "code": "FILL",
                                    "system": "http://terminology.hl7.org/CodeSystem/v2-0203"
                                }
                            ]
                        },
                        "value": "T25-0208"
                    }
                ],
                "status": "current",
                "subject": {
                    "identifier": {
                        "system": "https://fhir.nhs.uk/Id/nhs-number",
                        "type": {
                            "coding": [
                                {
                                    "code": "NH",
                                    "system": "http://terminology.hl7.org/CodeSystem/v2-0203"
                                }
                            ]
                        },
                        "value": "9737383206"
                    },
                    "reference": "urn:uuid:3b1288e5-603e-44c7-adef-75485904d74d"
                },
                "type": {
                    "coding": [
                        {
                            "code": "1054161000000101",
                            "display": "Genetic report",
                            "system": "http://snomed.info/sct"
                        }
                    ]
                }
            }
        },
        {
            "fullUrl": "urn:uuid:f4d638ab-44bb-4028-a28f-c50fcadfd182",
            "resource": {
                "resourceType": "Specimen",
                "identifier": [
                    {
                        "type": {
                            "coding": [
                                {
                                    "code": "PLAC",
                                    "system": "http://terminology.hl7.org/CodeSystem/v2-0203"
                                }
                            ]
                        },
                        "value": "T25-0208"
                    }
                ],
                "receivedTime": "2025-10-06T00:00:00+00:00",
                "status": "unavailable",
                "subject": {
                    "identifier": {
                        "system": "https://fhir.nhs.uk/Id/nhs-number",
                        "type": {
                            "coding": [
                                {
                                    "code": "NH",
                                    "system": "http://terminology.hl7.org/CodeSystem/v2-0203"
                                }
                            ]
                        },
                        "value": "9737383206"
                    },
                    "reference": "urn:uuid:3b1288e5-603e-44c7-adef-75485904d74d"
                }
            }
        },
        {
            "fullUrl": "urn:uuid:0bb75f1a-a766-4a2f-b66f-fc55064c956e",
            "resource": {
                "resourceType": "ServiceRequest",
                "category": [
                    {
                        "coding": [
                            {
                                "code": "116148004",
                                "system": "http://snomed.info/sct"
                            }
                        ]
                    }
                ],
                "code": {
                    "coding": [
                        {
                            "code": "R125.1",
                            "display": "Thoracic aortic aneurysm or dissection (WES or Medium Panel)",
                            "system": "https://fhir.nhs.uk/CodeSystem/England-GenomicTestDirectory"
                        }
                    ]
                },
                "identifier": [
                    {
                        "assigner": {
                            "identifier": {
                                "system": "https://fhir.nhs.uk/Id/ods-organization-code",
                                "value": "REP"
                            }
                        },
                        "type": {
                            "coding": [
                                {
                                    "code": "PLAC",
                                    "system": "http://terminology.hl7.org/CodeSystem/v2-0203"
                                }
                            ]
                        },
                        "value": "1000152870"
                    }
                ],
                "intent": "order",
                "reasonCode": [
                    {
                        "coding": [
                            {
                                "code": "R125",
                                "system": "https://fhir.nwgenomics.nhs.uk/CodeSystem/GenomicClinicalIndication"
                            }
                        ]
                    }
                ],
                "requester": {
                    "display": "Liverpool Womens",
                    "identifier": {
                        "system": "https://fhir.nhs.uk/Id/ods-organization-code",
                        "value": "REP"
                    },
                    "type": "Organization"
                },
                "specimen": [
                    {
                        "reference": "urn:uuid:f4d638ab-44bb-4028-a28f-c50fcadfd182",
                        "type": "Specimen"
                    }
                ],
                "status": "completed",
                "subject": {
                    "identifier": {
                        "system": "https://fhir.nhs.uk/Id/nhs-number",
                        "type": {
                            "coding": [
                                {
                                    "code": "NH",
                                    "system": "http://terminology.hl7.org/CodeSystem/v2-0203"
                                }
                            ]
                        },
                        "value": "9737383206"
                    },
                    "reference": "urn:uuid:3b1288e5-603e-44c7-adef-75485904d74d"
                }
            }
        },
        {
            "fullUrl": "urn:uuid:8982e58e-320f-4713-88af-94f6d61d97f2",
            "resource": {
                "resourceType": "DiagnosticReport",
                "basedOn": [
                    {
                        "identifier": {
                            "assigner": {
                                "identifier": {
                                    "system": "https://fhir.nhs.uk/Id/ods-organization-code",
                                    "value": "REP"
                                }
                            },
                            "type": {
                                "coding": [
                                    {
                                        "code": "PLAC",
                                        "system": "http://terminology.hl7.org/CodeSystem/v2-0203"
                                    }
                                ]
                            },
                            "value": "1000152870"
                        },
                        "reference": "urn:uuid:0bb75f1a-a766-4a2f-b66f-fc55064c956e",
                        "type": "ServiceRequest"
                    }
                ],
                "category": [
                    {
                        "coding": [
                            {
                                "code": "GE",
                                "system": "http://terminology.hl7.org/CodeSystem/v2-0074"
                            }
                        ]
                    }
                ],
                "code": {
                    "coding": [
                        {
                            "code": "R125_Cardiology",
                            "display": "PANEL: R125.1, R125.2 - Thoracic aortic aneurysm and dissection v1.2",
                            "system": "https://fhir.nwgenomics.nhs.uk/CodeSystem/IGEAP"
                        },
                        {
                            "code": "R125.1",
                            "display": "Thoracic aortic aneurysm or dissection (WES or Medium Panel)",
                            "system": "https://fhir.nhs.uk/CodeSystem/England-GenomicTestDirectory"
                        }
                    ]
                },
                "effectiveDateTime": "2025-10-14T15:59:16+00:00",
                "extension": [
                    {
                        "url": "http://hl7.org/fhir/StructureDefinition/workflow-supportingInfo",
                        "valueReference": {
                            "display": "Genetic report",
                            "reference": "urn:uuid:7d9a06a1-eb17-415a-9345-fe5423da454c",
                            "type": "DocumentReference"
                        }
                    }
                ],
                "identifier": [
                    {
                        "assigner": {
                            "identifier": {
                                "system": "https://fhir.nhs.uk/Id/ods-organization-code",
                                "value": "699X0"
                            }
                        },
                        "system": "https://fhir.nwgenomics.nhs.uk/iGene/ReportIdentifier",
                        "type": {
                            "coding": [
                                {
                                    "code": "FILL",
                                    "system": "http://terminology.hl7.org/CodeSystem/v2-0203"
                                }
                            ]
                        },
                        "value": "T25-0208"
                    }
                ],
                "issued": "2025-10-14T15:59:16+00:00",
                "performer": [
                    {
                        "display": "NHS North West Genomics",
                        "identifier": {
                            "system": "https://fhir.nhs.uk/Id/ods-organization-code",
                            "value": "699X0"
                        },
                        "type": "Organization"
                    }
                ],
                "presentedForm": [
                    {}
                ],
                "resultsInterpreter": [
                    {
                        "display": "Jonathan Edgerley"
                    }
                ],
                "specimen": [
                    {
                        "reference": "urn:uuid:f4d638ab-44bb-4028-a28f-c50fcadfd182",
                        "type": "Specimen"
                    }
                ],
                "status": "final",
                "subject": {
                    "identifier": {
                        "system": "https://fhir.nhs.uk/Id/nhs-number",
                        "type": {
                            "coding": [
                                {
                                    "code": "NH",
                                    "system": "http://terminology.hl7.org/CodeSystem/v2-0203"
                                }
                            ]
                        },
                        "value": "9737383206"
                    },
                    "reference": "urn:uuid:3b1288e5-603e-44c7-adef-75485904d74d"
                }
            }
        }
    ],
    "identifier": {
        "value": "ORIE-251014-9"
    },
    "timestamp": "2025-10-14T15:59:42+00:00",
    "type": "message"
}