{
  "resourceType": "Bundle",
  "entry": [
    {
      "fullUrl": "urn:uuid:8e47fc49-19bc-4fe5-8d27-d9ff42b554ea",
      "resource": {
        "resourceType": "MessageHeader",
        "destination": [
          {
            "endpoint": "https//fhir.mft.nhs.uk/Endpoint/EPIC",
            "receiver": {
              "identifier": {
                "system": "https://fhir.nhs.uk/Id/ods-organization-code",
                "value": "699X0"
              }
            }
          }
        ],
        "eventCoding": {
          "code": "R01",
          "system": "http://terminology.hl7.org/CodeSystem/v2-0003"
        },
        "focus": [
          {
            "reference": "urn:uuid:c518fd0d-fdc2-4c7e-bf06-332a732802ba"
          }
        ],
        "sender": {
          "identifier": {
            "system": "https://fhir.nhs.uk/Id/ods-organization-code",
            "value": "699X0"
          }
        },
        "source": {
          "endpoint": "https://fhir.nwgenomics.nhs.uk/Endpoint/IGENE",
          "software": "NW GLH"
        }
      }
    },
    {
      "fullUrl": "urn:uuid:805a010b-eede-41a9-ae9e-3992e98079c9",
      "resource": {
        "resourceType": "Patient",
        "address": [
          {
            "postalCode": "CW12 1BN"
          }
        ],
        "birthDate": "1982--0-2-",
        "gender": "female",
        "identifier": [
          {
            "system": "https://fhir.nhs.uk/Id/nhs-number",
            "type": {
              "coding": [
                {
                  "code": "NH",
                  "system": "http://terminology.hl7.org/CodeSystem/v2-0203"
                }
              ]
            },
            "value": "9737383281"
          },
          {
            "assigner": {
              "identifier": {
                "system": "https://fhir.nhs.uk/Id/ods-organization-code",
                "value": "R0A"
              }
            },
            "system": "urn:oid:1.2.840.114350.1.13.611.3.7.5.737384.14",
            "type": {
              "coding": [
                {
                  "code": "MR",
                  "system": "http://terminology.hl7.org/CodeSystem/v2-0203"
                }
              ]
            },
            "value": "ABC14567"
          }
        ],
        "name": [
          {
            "family": "CONGLETON",
            "given": [
              "Margaery"
            ]
          }
        ]
      }
    },
    {
      "fullUrl": "urn:uuid:72af581c-f293-4d82-a895-eb5ca44ce746",
      "resource": {
        "resourceType": "Observation",
        "code": {
          "coding": [
            {
              "code": "53577-3",
              "display": "Reason for study",
              "system": "http://loinc.org"
            }
          ]
        },
        "identifier": [
          {
            "assigner": {
              "identifier": {
                "system": "https://fhir.nhs.uk/Id/ods-organization-code",
                "value": "699X0"
              }
            },
            "system": "https://fhir.nwgenomics.nhs.uk/iGene/ReportIdentifier",
            "type": {
              "coding": [
                {
                  "code": "FILL",
                  "system": "http://terminology.hl7.org/CodeSystem/v2-0203"
                }
              ]
            },
            "value": "Gen825750"
          }
        ],
        "performer": [
          {
            "identifier": {
              "system": "https://fhir.nhs.uk/Id/ods-organization-code",
              "value": "699X0"
            },
            "type": "Organization"
          }
        ],
        "status": "final",
        "subject": {
          "identifier": {
            "system": "https://fhir.nhs.uk/Id/nhs-number",
            "type": {
              "coding": [
                {
                  "code": "NH",
                  "system": "http://terminology.hl7.org/CodeSystem/v2-0203"
                }
              ]
            },
            "value": "9737383281"
          },
          "reference": "urn:uuid:805a010b-eede-41a9-ae9e-3992e98079c9"
        },
        "valueString": "Patient may be carrier for classic galactosemia."
      }
    },
    {
      "fullUrl": "urn:uuid:8007deda-153b-4566-9ff9-53cc27437d28",
      "resource": {
        "resourceType": "Observation",
        "code": {
          "coding": [
            {
              "code": "51967-8",
              "display": "Genetic disease(s) assessed",
              "system": "http://loinc.org"
            }
          ]
        },
        "identifier": [
          {
            "assigner": {
              "identifier": {
                "system": "https://fhir.nhs.uk/Id/ods-organization-code",
                "value": "699X0"
              }
            },
            "system": "https://fhir.nwgenomics.nhs.uk/iGene/ReportIdentifier",
            "type": {
              "coding": [
                {
                  "code": "FILL",
                  "system": "http://terminology.hl7.org/CodeSystem/v2-0203"
                }
              ]
            },
            "value": "Gen825750"
          }
        ],
        "performer": [
          {
            "identifier": {
              "system": "https://fhir.nhs.uk/Id/ods-organization-code",
              "value": "699X0"
            },
            "type": "Organization"
          }
        ],
        "status": "final",
        "subject": {
          "identifier": {
            "system": "https://fhir.nhs.uk/Id/nhs-number",
            "type": {
              "coding": [
                {
                  "code": "NH",
                  "system": "http://terminology.hl7.org/CodeSystem/v2-0203"
                }
              ]
            },
            "value": "9737383281"
          },
          "reference": "urn:uuid:805a010b-eede-41a9-ae9e-3992e98079c9"
        },
        "valueCodeableConcept": {
          "coding": [
            {
              "code": "C0016952",
              "display": "Galactosemia",
              "system": "MedGen-Dis"
            }
          ]
        }
      }
    },
    {
      "fullUrl": "urn:uuid:4a06128a-af6c-4c73-b7df-65e1c3362695",
      "resource": {
        "resourceType": "Observation",
        "code": {
          "coding": [
            {
              "code": "51958-7",
              "display": "Transcript reference sequence [Identifier]",
              "system": "http://loinc.org"
            }
          ]
        },
        "identifier": [
          {
            "assigner": {
              "identifier": {
                "system": "https://fhir.nhs.uk/Id/ods-organization-code",
                "value": "699X0"
              }
            },
            "system": "https://fhir.nwgenomics.nhs.uk/iGene/ReportIdentifier",
            "type": {
              "coding": [
                {
                  "code": "FILL",
                  "system": "http://terminology.hl7.org/CodeSystem/v2-0203"
                }
              ]
            },
            "value": "Gen825750"
          }
        ],
        "performer": [
          {
            "identifier": {
              "system": "https://fhir.nhs.uk/Id/ods-organization-code",
              "value": "699X0"
            },
            "type": "Organization"
          }
        ],
        "status": "final",
        "subject": {
          "identifier": {
            "system": "https://fhir.nhs.uk/Id/nhs-number",
            "type": {
              "coding": [
                {
                  "code": "NH",
                  "system": "http://terminology.hl7.org/CodeSystem/v2-0203"
                }
              ]
            },
            "value": "9737383281"
          },
          "reference": "urn:uuid:805a010b-eede-41a9-ae9e-3992e98079c9"
        },
        "valueCodeableConcept": {
          "coding": [
            {
              "code": "NM_000249",
              "display": "NM_000249",
              "system": "http://www.ncbi.nlm.nih.gov/refseq"
            }
          ]
        }
      }
    },
    {
      "fullUrl": "urn:uuid:65fb627f-1fea-41ba-9c57-d02bdd40edd4",
      "resource": {
        "resourceType": "Observation",
        "code": {
          "coding": [
            {
              "code": "48018-6",
              "display": "Gene studied [ID]",
              "system": "http://loinc.org"
            }
          ]
        },
        "identifier": [
          {
            "assigner": {
              "identifier": {
                "system": "https://fhir.nhs.uk/Id/ods-organization-code",
                "value": "699X0"
              }
            },
            "system": "https://fhir.nwgenomics.nhs.uk/iGene/ReportIdentifier",
            "type": {
              "coding": [
                {
                  "code": "FILL",
                  "system": "http://terminology.hl7.org/CodeSystem/v2-0203"
                }
              ]
            },
            "value": "Gen825750"
          }
        ],
        "performer": [
          {
            "identifier": {
              "system": "https://fhir.nhs.uk/Id/ods-organization-code",
              "value": "699X0"
            },
            "type": "Organization"
          }
        ],
        "status": "final",
        "subject": {
          "identifier": {
            "system": "https://fhir.nhs.uk/Id/nhs-number",
            "type": {
              "coding": [
                {
                  "code": "NH",
                  "system": "http://terminology.hl7.org/CodeSystem/v2-0203"
                }
              ]
            },
            "value": "9737383281"
          },
          "reference": "urn:uuid:805a010b-eede-41a9-ae9e-3992e98079c9"
        },
        "valueCodeableConcept": {
          "coding": [
            {
              "code": "4135",
              "display": "GALT",
              "system": "http://www.genenames.org"
            }
          ]
        }
      }
    },
    {
      "fullUrl": "urn:uuid:9f63bbed-5f5c-4f6d-ab03-04afa9ab16a1",
      "resource": {
        "resourceType": "Observation",
        "code": {
          "coding": [
            {
              "code": "36908-2",
              "display": "Gene mutations tested",
              "system": "http://loinc.org"
            }
          ]
        },
        "identifier": [
          {
            "assigner": {
              "identifier": {
                "system": "https://fhir.nhs.uk/Id/ods-organization-code",
                "value": "699X0"
              }
            },
            "system": "https://fhir.nwgenomics.nhs.uk/iGene/ReportIdentifier",
            "type": {
              "coding": [
                {
                  "code": "FILL",
                  "system": "http://terminology.hl7.org/CodeSystem/v2-0203"
                }
              ]
            },
            "value": "Gen825750"
          }
        ],
        "performer": [
          {
            "identifier": {
              "system": "https://fhir.nhs.uk/Id/ods-organization-code",
              "value": "699X0"
            },
            "type": "Organization"
          }
        ],
        "status": "final",
        "subject": {
          "identifier": {
            "system": "https://fhir.nhs.uk/Id/nhs-number",
            "type": {
              "coding": [
                {
                  "code": "NH",
                  "system": "http://terminology.hl7.org/CodeSystem/v2-0203"
                }
              ]
            },
            "value": "9737383281"
          },
          "reference": "urn:uuid:805a010b-eede-41a9-ae9e-3992e98079c9"
        },
        "valueCodeableConcept": {
          "coding": [
            {
              "code": "-119_-116delGTCA",
              "display": "-119_-116delGTCA",
              "system": "http://varnomen.hgvs.org"
            }
          ]
        }
      }
    },
    {
      "fullUrl": "urn:uuid:37b26f25-0b1c-4379-8221-38fca8f812ea",
      "resource": {
        "resourceType": "Observation",
        "code": {
          "coding": [
            {
              "code": "36908-2",
              "display": "Gene mutations tested",
              "system": "http://loinc.org"
            }
          ]
        },
        "identifier": [
          {
            "assigner": {
              "identifier": {
                "system": "https://fhir.nhs.uk/Id/ods-organization-code",
                "value": "699X0"
              }
            },
            "system": "https://fhir.nwgenomics.nhs.uk/iGene/ReportIdentifier",
            "type": {
              "coding": [
                {
                  "code": "FILL",
                  "system": "http://terminology.hl7.org/CodeSystem/v2-0203"
                }
              ]
            },
            "value": "Gen825750"
          }
        ],
        "performer": [
          {
            "identifier": {
              "system": "https://fhir.nhs.uk/Id/ods-organization-code",
              "value": "699X0"
            },
            "type": "Organization"
          }
        ],
        "status": "final",
        "subject": {
          "identifier": {
            "system": "https://fhir.nhs.uk/Id/nhs-number",
            "type": {
              "coding": [
                {
                  "code": "NH",
                  "system": "http://terminology.hl7.org/CodeSystem/v2-0203"
                }
              ]
            },
            "value": "9737383281"
          },
          "reference": "urn:uuid:805a010b-eede-41a9-ae9e-3992e98079c9"
        },
        "valueCodeableConcept": {
          "coding": [
            {
              "code": "Asp98Asn",
              "display": "Asp98Asn",
              "system": "http://varnomen.hgvs.org"
            }
          ]
        }
      }
    },
    {
      "fullUrl": "urn:uuid:836cf6e4-e305-4afe-b3ed-8a3406aac399",
      "resource": {
        "resourceType": "Observation",
        "code": {
          "coding": [
            {
              "code": "36908-2",
              "display": "Gene mutations tested",
              "system": "http://loinc.org"
            }
          ]
        },
        "identifier": [
          {
            "assigner": {
              "identifier": {
                "system": "https://fhir.nhs.uk/Id/ods-organization-code",
                "value": "699X0"
              }
            },
            "system": "https://fhir.nwgenomics.nhs.uk/iGene/ReportIdentifier",
            "type": {
              "coding": [
                {
                  "code": "FILL",
                  "system": "http://terminology.hl7.org/CodeSystem/v2-0203"
                }
              ]
            },
            "value": "Gen825750"
          }
        ],
        "performer": [
          {
            "identifier": {
              "system": "https://fhir.nhs.uk/Id/ods-organization-code",
              "value": "699X0"
            },
            "type": "Organization"
          }
        ],
        "status": "final",
        "subject": {
          "identifier": {
            "system": "https://fhir.nhs.uk/Id/nhs-number",
            "type": {
              "coding": [
                {
                  "code": "NH",
                  "system": "http://terminology.hl7.org/CodeSystem/v2-0203"
                }
              ]
            },
            "value": "9737383281"
          },
          "reference": "urn:uuid:805a010b-eede-41a9-ae9e-3992e98079c9"
        },
        "valueCodeableConcept": {
          "coding": [
            {
              "code": "Gln188Arg",
              "display": "Gln188Arg",
              "system": "http://varnomen.hgvs.org"
            }
          ]
        }
      }
    },
    {
      "fullUrl": "urn:uuid:79efc42e-1ead-4ae9-80c6-c8bfc6f188d1",
      "resource": {
        "resourceType": "Observation",
        "code": {
          "coding": [
            {
              "code": "51968-6",
              "display": "Discrete variation analysis overall interpretation",
              "system": "http://loinc.org"
            }
          ]
        },
        "identifier": [
          {
            "assigner": {
              "identifier": {
                "system": "https://fhir.nhs.uk/Id/ods-organization-code",
                "value": "699X0"
              }
            },
            "system": "https://fhir.nwgenomics.nhs.uk/iGene/ReportIdentifier",
            "type": {
              "coding": [
                {
                  "code": "FILL",
                  "system": "http://terminology.hl7.org/CodeSystem/v2-0203"
                }
              ]
            },
            "value": "Gen825750"
          }
        ],
        "performer": [
          {
            "identifier": {
              "system": "https://fhir.nhs.uk/Id/ods-organization-code",
              "value": "699X0"
            },
            "type": "Organization"
          }
        ],
        "status": "final",
        "subject": {
          "identifier": {
            "system": "https://fhir.nhs.uk/Id/nhs-number",
            "type": {
              "coding": [
                {
                  "code": "NH",
                  "system": "http://terminology.hl7.org/CodeSystem/v2-0203"
                }
              ]
            },
            "value": "9737383281"
          },
          "reference": "urn:uuid:805a010b-eede-41a9-ae9e-3992e98079c9"
        },
        "valueCodeableConcept": {
          "coding": [
            {
              "code": "LA6576-8",
              "display": "Positive",
              "system": "http://loinc.org"
            }
          ]
        }
      }
    },
    {
      "fullUrl": "urn:uuid:e30696c5-fdad-4414-ad58-91694725b854",
      "resource": {
        "resourceType": "Binary",
        "contentType": "application/pdf",
        "data": ""
      }
    },
    {
      "fullUrl": "urn:uuid:8c5808c9-c1de-49d9-b7aa-8263db69dcdf",
      "resource": {
        "resourceType": "DocumentReference",
        "content": [
          {
            "attachment": {
              "contentType": "application/pdf",
              "url": "urn:uuid:e30696c5-fdad-4414-ad58-91694725b854"
            }
          }
        ],
        "context": {
          "period": {
            "end": "2016-08-09T16:50:00+00:00",
            "start": "2016-08-09T16:50:00+00:00"
          },
          "related": [
            {
              "identifier": {
                "assigner": {
                  "identifier": {
                    "system": "https://fhir.nhs.uk/Id/ods-organization-code",
                    "value": "R0A"
                  }
                },
                "type": {
                  "coding": [
                    {
                      "code": "PLAC",
                      "system": "http://terminology.hl7.org/CodeSystem/v2-0203"
                    }
                  ]
                },
                "value": "LRI-1601716017"
              },
              "reference": "urn:uuid:e02c21e1-15d8-442f-919a-f55aa45e0ef3",
              "type": "ServiceRequest"
            },
            {
              "identifier": {
                "assigner": {
                  "identifier": {
                    "system": "https://fhir.nhs.uk/Id/ods-organization-code",
                    "value": "699X0"
                  }
                },
                "system": "https://fhir.nwgenomics.nhs.uk/iGene/ReportIdentifier",
                "type": {
                  "coding": [
                    {
                      "code": "FILL",
                      "system": "http://terminology.hl7.org/CodeSystem/v2-0203"
                    }
                  ]
                },
                "value": "Gen825750"
              },
              "reference": "urn:uuid:c518fd0d-fdc2-4c7e-bf06-332a732802ba",
              "type": "DiagnosticReport"
            }
          ],
          "sourcePatientInfo": {
            "identifier": {
              "assigner": {
                "identifier": {
                  "system": "https://fhir.nhs.uk/Id/ods-organization-code",
                  "value": "R0A"
                }
              },
              "system": "urn:oid:1.2.840.114350.1.13.611.3.7.5.737384.14",
              "type": {
                "coding": [
                  {
                    "code": "MR",
                    "system": "http://terminology.hl7.org/CodeSystem/v2-0203"
                  }
                ]
              },
              "value": "ABC14567"
            }
          }
        },
        "custodian": {
          "identifier": {
            "system": "https://fhir.nhs.uk/Id/ods-organization-code",
            "value": "699X0"
          },
          "type": "Organization"
        },
        "date": "2016-08-09T16:50:00+00:00",
        "identifier": [
          {
            "assigner": {
              "identifier": {
                "system": "https://fhir.nhs.uk/Id/ods-organization-code",
                "value": "699X0"
              }
            },
            "system": "https://fhir.nwgenomics.nhs.uk/iGene/ReportIdentifier",
            "type": {
              "coding": [
                {
                  "code": "FILL",
                  "system": "http://terminology.hl7.org/CodeSystem/v2-0203"
                }
              ]
            },
            "value": "Gen825750"
          }
        ],
        "status": "current",
        "subject": {
          "identifier": {
            "system": "https://fhir.nhs.uk/Id/nhs-number",
            "type": {
              "coding": [
                {
                  "code": "NH",
                  "system": "http://terminology.hl7.org/CodeSystem/v2-0203"
                }
              ]
            },
            "value": "9737383281"
          },
          "reference": "urn:uuid:805a010b-eede-41a9-ae9e-3992e98079c9"
        },
        "type": {
          "coding": [
            {
              "code": "1054161000000101",
              "display": "Genetic report",
              "system": "http://snomed.info/sct"
            }
          ]
        }
      }
    },
    {
      "fullUrl": "urn:uuid:9abd8aba-47c2-42d6-8300-273a0324df42",
      "resource": {
        "resourceType": "Observation",
        "code": {
          "coding": [
            {
              "code": "62374-4",
              "display": "Human reference sequence assembly",
              "system": "http://loinc.org"
            }
          ]
        },
        "identifier": [
          {
            "assigner": {
              "identifier": {
                "system": "https://fhir.nhs.uk/Id/ods-organization-code",
                "value": "699X0"
              }
            },
            "system": "https://fhir.nwgenomics.nhs.uk/iGene/ReportIdentifier",
            "type": {
              "coding": [
                {
                  "code": "FILL",
                  "system": "http://terminology.hl7.org/CodeSystem/v2-0203"
                }
              ]
            },
            "value": "Gen825750"
          }
        ],
        "performer": [
          {
            "identifier": {
              "system": "https://fhir.nhs.uk/Id/ods-organization-code",
              "value": "699X0"
            },
            "type": "Organization"
          }
        ],
        "status": "final",
        "subject": {
          "identifier": {
            "system": "https://fhir.nhs.uk/Id/nhs-number",
            "type": {
              "coding": [
                {
                  "code": "NH",
                  "system": "http://terminology.hl7.org/CodeSystem/v2-0203"
                }
              ]
            },
            "value": "9737383281"
          },
          "reference": "urn:uuid:805a010b-eede-41a9-ae9e-3992e98079c9"
        },
        "valueCodeableConcept": {
          "coding": [
            {
              "code": "LA14029-5",
              "display": "GRCh37",
              "system": "http://loinc.org"
            }
          ]
        }
      }
    },
    {
      "fullUrl": "urn:uuid:344cda4e-2b70-4eb1-86be-e3702db1c047",
      "resource": {
        "resourceType": "Observation",
        "code": {
          "coding": [
            {
              "code": "82115-7",
              "display": "dbSNP version",
              "system": "http://loinc.org"
            }
          ]
        },
        "identifier": [
          {
            "assigner": {
              "identifier": {
                "system": "https://fhir.nhs.uk/Id/ods-organization-code",
                "value": "699X0"
              }
            },
            "system": "https://fhir.nwgenomics.nhs.uk/iGene/ReportIdentifier",
            "type": {
              "coding": [
                {
                  "code": "FILL",
                  "system": "http://terminology.hl7.org/CodeSystem/v2-0203"
                }
              ]
            },
            "value": "Gen825750"
          }
        ],
        "performer": [
          {
            "identifier": {
              "system": "https://fhir.nhs.uk/Id/ods-organization-code",
              "value": "699X0"
            },
            "type": "Organization"
          }
        ],
        "status": "final",
        "subject": {
          "identifier": {
            "system": "https://fhir.nhs.uk/Id/nhs-number",
            "type": {
              "coding": [
                {
                  "code": "NH",
                  "system": "http://terminology.hl7.org/CodeSystem/v2-0203"
                }
              ]
            },
            "value": "9737383281"
          },
          "reference": "urn:uuid:805a010b-eede-41a9-ae9e-3992e98079c9"
        },
        "valueQuantity": {
          "system": "http://unitsofmeasure.org",
          "unit": "Attributes of Discrete Genetic Variants: Report Section 2",
          "value": 147
        }
      }
    },
    {
      "fullUrl": "urn:uuid:6cf4b2eb-38f6-44b7-a11b-f9a7f2c1a996",
      "resource": {
        "resourceType": "Observation",
        "code": {
          "coding": [
            {
              "code": "83005-9",
              "display": "Variant Category",
              "system": "http://loinc.org"
            }
          ]
        },
        "identifier": [
          {
            "assigner": {
              "identifier": {
                "system": "https://fhir.nhs.uk/Id/ods-organization-code",
                "value": "699X0"
              }
            },
            "system": "https://fhir.nwgenomics.nhs.uk/iGene/ReportIdentifier",
            "type": {
              "coding": [
                {
                  "code": "FILL",
                  "system": "http://terminology.hl7.org/CodeSystem/v2-0203"
                }
              ]
            },
            "value": "Gen825750"
          }
        ],
        "performer": [
          {
            "identifier": {
              "system": "https://fhir.nhs.uk/Id/ods-organization-code",
              "value": "699X0"
            },
            "type": "Organization"
          }
        ],
        "status": "final",
        "subject": {
          "identifier": {
            "system": "https://fhir.nhs.uk/Id/nhs-number",
            "type": {
              "coding": [
                {
                  "code": "NH",
                  "system": "http://terminology.hl7.org/CodeSystem/v2-0203"
                }
              ]
            },
            "value": "9737383281"
          },
          "reference": "urn:uuid:805a010b-eede-41a9-ae9e-3992e98079c9"
        },
        "valueCodeableConcept": {
          "coding": [
            {
              "code": "LA26801-3",
              "display": "Simple Variant",
              "system": "http://loinc.org"
            }
          ]
        }
      }
    },
    {
      "fullUrl": "urn:uuid:5241bfdb-77c9-4312-84e0-a041e1ce80c9",
      "resource": {
        "resourceType": "Observation",
        "code": {
          "coding": [
            {
              "code": "81252-9",
              "display": "Discrete genetic variant",
              "system": "http://loinc.org"
            }
          ]
        },
        "identifier": [
          {
            "assigner": {
              "identifier": {
                "system": "https://fhir.nhs.uk/Id/ods-organization-code",
                "value": "699X0"
              }
            },
            "system": "https://fhir.nwgenomics.nhs.uk/iGene/ReportIdentifier",
            "type": {
              "coding": [
                {
                  "code": "FILL",
                  "system": "http://terminology.hl7.org/CodeSystem/v2-0203"
                }
              ]
            },
            "value": "Gen825750"
          }
        ],
        "performer": [
          {
            "identifier": {
              "system": "https://fhir.nhs.uk/Id/ods-organization-code",
              "value": "699X0"
            },
            "type": "Organization"
          }
        ],
        "status": "final",
        "subject": {
          "identifier": {
            "system": "https://fhir.nhs.uk/Id/nhs-number",
            "type": {
              "coding": [
                {
                  "code": "NH",
                  "system": "http://terminology.hl7.org/CodeSystem/v2-0203"
                }
              ]
            },
            "value": "9737383281"
          },
          "reference": "urn:uuid:805a010b-eede-41a9-ae9e-3992e98079c9"
        },
        "valueCodeableConcept": {
          "coding": [
            {
              "code": "3614",
              "display": "NM_000155.3(GALT):c.563A>G(p.Gln188Arg)",
              "system": "http://www.ncbi.nlm.nih.gov/clinvar"
            }
          ]
        }
      }
    },
    {
      "fullUrl": "urn:uuid:a7e61f65-2522-41a2-811e-98faef502888",
      "resource": {
        "resourceType": "Observation",
        "code": {
          "coding": [
            {
              "code": "48018-6",
              "display": "Gene studied",
              "system": "http://loinc.org"
            }
          ]
        },
        "identifier": [
          {
            "assigner": {
              "identifier": {
                "system": "https://fhir.nhs.uk/Id/ods-organization-code",
                "value": "699X0"
              }
            },
            "system": "https://fhir.nwgenomics.nhs.uk/iGene/ReportIdentifier",
            "type": {
              "coding": [
                {
                  "code": "FILL",
                  "system": "http://terminology.hl7.org/CodeSystem/v2-0203"
                }
              ]
            },
            "value": "Gen825750"
          }
        ],
        "performer": [
          {
            "identifier": {
              "system": "https://fhir.nhs.uk/Id/ods-organization-code",
              "value": "699X0"
            },
            "type": "Organization"
          }
        ],
        "status": "final",
        "subject": {
          "identifier": {
            "system": "https://fhir.nhs.uk/Id/nhs-number",
            "type": {
              "coding": [
                {
                  "code": "NH",
                  "system": "http://terminology.hl7.org/CodeSystem/v2-0203"
                }
              ]
            },
            "value": "9737383281"
          },
          "reference": "urn:uuid:805a010b-eede-41a9-ae9e-3992e98079c9"
        },
        "valueCodeableConcept": {
          "coding": [
            {
              "code": "3614",
              "display": "GALT",
              "system": "http://www.genenames.org"
            }
          ]
        }
      }
    },
    {
      "fullUrl": "urn:uuid:2e140c3d-e7cc-4f58-92c1-5dbd067c5d00",
      "resource": {
        "resourceType": "Observation",
        "code": {
          "coding": [
            {
              "code": "51958-7",
              "display": "Transcript RefSeq ID",
              "system": "http://loinc.org"
            }
          ]
        },
        "identifier": [
          {
            "assigner": {
              "identifier": {
                "system": "https://fhir.nhs.uk/Id/ods-organization-code",
                "value": "699X0"
              }
            },
            "system": "https://fhir.nwgenomics.nhs.uk/iGene/ReportIdentifier",
            "type": {
              "coding": [
                {
                  "code": "FILL",
                  "system": "http://terminology.hl7.org/CodeSystem/v2-0203"
                }
              ]
            },
            "value": "Gen825750"
          }
        ],
        "performer": [
          {
            "identifier": {
              "system": "https://fhir.nhs.uk/Id/ods-organization-code",
              "value": "699X0"
            },
            "type": "Organization"
          }
        ],
        "status": "final",
        "subject": {
          "identifier": {
            "system": "https://fhir.nhs.uk/Id/nhs-number",
            "type": {
              "coding": [
                {
                  "code": "NH",
                  "system": "http://terminology.hl7.org/CodeSystem/v2-0203"
                }
              ]
            },
            "value": "9737383281"
          },
          "reference": "urn:uuid:805a010b-eede-41a9-ae9e-3992e98079c9"
        },
        "valueCodeableConcept": {
          "coding": [
            {
              "code": "NM_000155.3",
              "display": "NM_000155.3",
              "system": "http://www.ncbi.nlm.nih.gov/refseq"
            }
          ]
        }
      }
    },
    {
      "fullUrl": "urn:uuid:80bbb3d5-f246-4fcb-837a-90f133c86171",
      "resource": {
        "resourceType": "Observation",
        "code": {
          "coding": [
            {
              "code": "41103-3",
              "display": "Transcript DNA Change (cHGVS)",
              "system": "http://loinc.org"
            }
          ]
        },
        "identifier": [
          {
            "assigner": {
              "identifier": {
                "system": "https://fhir.nhs.uk/Id/ods-organization-code",
                "value": "699X0"
              }
            },
            "system": "https://fhir.nwgenomics.nhs.uk/iGene/ReportIdentifier",
            "type": {
              "coding": [
                {
                  "code": "FILL",
                  "system": "http://terminology.hl7.org/CodeSystem/v2-0203"
                }
              ]
            },
            "value": "Gen825750"
          }
        ],
        "performer": [
          {
            "identifier": {
              "system": "https://fhir.nhs.uk/Id/ods-organization-code",
              "value": "699X0"
            },
            "type": "Organization"
          }
        ],
        "status": "final",
        "subject": {
          "identifier": {
            "system": "https://fhir.nhs.uk/Id/nhs-number",
            "type": {
              "coding": [
                {
                  "code": "NH",
                  "system": "http://terminology.hl7.org/CodeSystem/v2-0203"
                }
              ]
            },
            "value": "9737383281"
          },
          "reference": "urn:uuid:805a010b-eede-41a9-ae9e-3992e98079c9"
        },
        "valueCodeableConcept": {
          "coding": [
            {
              "code": "c.563A>G",
              "display": "c.563A>G",
              "system": "http://varnomen.hgvs.org"
            }
          ]
        }
      }
    },
    {
      "fullUrl": "urn:uuid:22b949d8-0f31-4a7d-b3c8-86d57ba6ddcc",
      "resource": {
        "resourceType": "Observation",
        "code": {
          "coding": [
            {
              "code": "48005-3",
              "display": "Amino acid change p.HGVS",
              "system": "http://loinc.org"
            }
          ]
        },
        "identifier": [
          {
            "assigner": {
              "identifier": {
                "system": "https://fhir.nhs.uk/Id/ods-organization-code",
                "value": "699X0"
              }
            },
            "system": "https://fhir.nwgenomics.nhs.uk/iGene/ReportIdentifier",
            "type": {
              "coding": [
                {
                  "code": "FILL",
                  "system": "http://terminology.hl7.org/CodeSystem/v2-0203"
                }
              ]
            },
            "value": "Gen825750"
          }
        ],
        "performer": [
          {
            "identifier": {
              "system": "https://fhir.nhs.uk/Id/ods-organization-code",
              "value": "699X0"
            },
            "type": "Organization"
          }
        ],
        "status": "final",
        "subject": {
          "identifier": {
            "system": "https://fhir.nhs.uk/Id/nhs-number",
            "type": {
              "coding": [
                {
                  "code": "NH",
                  "system": "http://terminology.hl7.org/CodeSystem/v2-0203"
                }
              ]
            },
            "value": "9737383281"
          },
          "reference": "urn:uuid:805a010b-eede-41a9-ae9e-3992e98079c9"
        },
        "valueCodeableConcept": {
          "coding": [
            {
              "code": "p.Gln188Arg",
              "display": "p.Gln188Arg",
              "system": "http://varnomen.hgvs.org"
            }
          ]
        }
      }
    },
    {
      "fullUrl": "urn:uuid:67ea94b2-53a6-433d-a6d6-d876038b89c7",
      "resource": {
        "resourceType": "Observation",
        "code": {
          "coding": [
            {
              "code": "48019-4",
              "display": "DNA change type",
              "system": "http://loinc.org"
            }
          ]
        },
        "identifier": [
          {
            "assigner": {
              "identifier": {
                "system": "https://fhir.nhs.uk/Id/ods-organization-code",
                "value": "699X0"
              }
            },
            "system": "https://fhir.nwgenomics.nhs.uk/iGene/ReportIdentifier",
            "type": {
              "coding": [
                {
                  "code": "FILL",
                  "system": "http://terminology.hl7.org/CodeSystem/v2-0203"
                }
              ]
            },
            "value": "Gen825750"
          }
        ],
        "performer": [
          {
            "identifier": {
              "system": "https://fhir.nhs.uk/Id/ods-organization-code",
              "value": "699X0"
            },
            "type": "Organization"
          }
        ],
        "status": "final",
        "subject": {
          "identifier": {
            "system": "https://fhir.nhs.uk/Id/nhs-number",
            "type": {
              "coding": [
                {
                  "code": "NH",
                  "system": "http://terminology.hl7.org/CodeSystem/v2-0203"
                }
              ]
            },
            "value": "9737383281"
          },
          "reference": "urn:uuid:805a010b-eede-41a9-ae9e-3992e98079c9"
        },
        "valueCodeableConcept": {
          "coding": [
            {
              "code": "LA6690-7",
              "display": "Substitution",
              "system": "http://loinc.org"
            }
          ]
        }
      }
    },
    {
      "fullUrl": "urn:uuid:335aa119-6a8f-439e-ba07-0a891c427cbd",
      "resource": {
        "resourceType": "Observation",
        "code": {
          "coding": [
            {
              "code": "48006-1",
              "display": "Amino Acid change type"
            }
          ]
        },
        "identifier": [
          {
            "assigner": {
              "identifier": {
                "system": "https://fhir.nhs.uk/Id/ods-organization-code",
                "value": "699X0"
              }
            },
            "system": "https://fhir.nwgenomics.nhs.uk/iGene/ReportIdentifier",
            "type": {
              "coding": [
                {
                  "code": "FILL",
                  "system": "http://terminology.hl7.org/CodeSystem/v2-0203"
                }
              ]
            },
            "value": "Gen825750"
          }
        ],
        "performer": [
          {
            "identifier": {
              "system": "https://fhir.nhs.uk/Id/ods-organization-code",
              "value": "699X0"
            },
            "type": "Organization"
          }
        ],
        "status": "final",
        "subject": {
          "identifier": {
            "system": "https://fhir.nhs.uk/Id/nhs-number",
            "type": {
              "coding": [
                {
                  "code": "NH",
                  "system": "http://terminology.hl7.org/CodeSystem/v2-0203"
                }
              ]
            },
            "value": "9737383281"
          },
          "reference": "urn:uuid:805a010b-eede-41a9-ae9e-3992e98079c9"
        },
        "valueCodeableConcept": {
          "coding": [
            {
              "code": "LA6698-0",
              "display": "Missense",
              "system": "http://loinc.org"
            }
          ]
        }
      }
    },
    {
      "fullUrl": "urn:uuid:ce155b63-807b-49ad-8291-9d90bf903000",
      "resource": {
        "resourceType": "Observation",
        "code": {
          "coding": [
            {
              "code": "48013-7",
              "display": "Genomic reference sequence",
              "system": "http://loinc.org"
            }
          ]
        },
        "identifier": [
          {
            "assigner": {
              "identifier": {
                "system": "https://fhir.nhs.uk/Id/ods-organization-code",
                "value": "699X0"
              }
            },
            "system": "https://fhir.nwgenomics.nhs.uk/iGene/ReportIdentifier",
            "type": {
              "coding": [
                {
                  "code": "FILL",
                  "system": "http://terminology.hl7.org/CodeSystem/v2-0203"
                }
              ]
            },
            "value": "Gen825750"
          }
        ],
        "performer": [
          {
            "identifier": {
              "system": "https://fhir.nhs.uk/Id/ods-organization-code",
              "value": "699X0"
            },
            "type": "Organization"
          }
        ],
        "status": "final",
        "subject": {
          "identifier": {
            "system": "https://fhir.nhs.uk/Id/nhs-number",
            "type": {
              "coding": [
                {
                  "code": "NH",
                  "system": "http://terminology.hl7.org/CodeSystem/v2-0203"
                }
              ]
            },
            "value": "9737383281"
          },
          "reference": "urn:uuid:805a010b-eede-41a9-ae9e-3992e98079c9"
        },
        "valueCodeableConcept": {
          "coding": [
            {
              "code": "NG_009029.1:g.6533A>G",
              "display": "NG_009029.1:g.6533A>G",
              "system": "http://www.ncbi.nlm.nih.gov/refseq"
            }
          ]
        }
      }
    },
    {
      "fullUrl": "urn:uuid:38d4cccc-5bab-4714-8aa4-b70b8f351766",
      "resource": {
        "resourceType": "Observation",
        "code": {
          "coding": [
            {
              "code": "81290-9",
              "display": "Genomic DNA change(gHGVS)",
              "system": "http://loinc.org"
            }
          ]
        },
        "identifier": [
          {
            "assigner": {
              "identifier": {
                "system": "https://fhir.nhs.uk/Id/ods-organization-code",
                "value": "699X0"
              }
            },
            "system": "https://fhir.nwgenomics.nhs.uk/iGene/ReportIdentifier",
            "type": {
              "coding": [
                {
                  "code": "FILL",
                  "system": "http://terminology.hl7.org/CodeSystem/v2-0203"
                }
              ]
            },
            "value": "Gen825750"
          }
        ],
        "performer": [
          {
            "identifier": {
              "system": "https://fhir.nhs.uk/Id/ods-organization-code",
              "value": "699X0"
            },
            "type": "Organization"
          }
        ],
        "status": "final",
        "subject": {
          "identifier": {
            "system": "https://fhir.nhs.uk/Id/nhs-number",
            "type": {
              "coding": [
                {
                  "code": "NH",
                  "system": "http://terminology.hl7.org/CodeSystem/v2-0203"
                }
              ]
            },
            "value": "9737383281"
          },
          "reference": "urn:uuid:805a010b-eede-41a9-ae9e-3992e98079c9"
        },
        "valueCodeableConcept": {
          "coding": [
            {
              "code": "NC_000009.11:g.34648167A>G",
              "display": "NC_000009.11:g.34648167A>G",
              "system": "http://varnomen.hgvs.org"
            }
          ]
        }
      }
    },
    {
      "fullUrl": "urn:uuid:6f34efb6-962b-4acc-a3d6-017c2a7b86c2",
      "resource": {
        "resourceType": "Observation",
        "code": {
          "coding": [
            {
              "code": "69547-8",
              "display": "Genomic ref allele",
              "system": "http://loinc.org"
            }
          ]
        },
        "identifier": [
          {
            "assigner": {
              "identifier": {
                "system": "https://fhir.nhs.uk/Id/ods-organization-code",
                "value": "699X0"
              }
            },
            "system": "https://fhir.nwgenomics.nhs.uk/iGene/ReportIdentifier",
            "type": {
              "coding": [
                {
                  "code": "FILL",
                  "system": "http://terminology.hl7.org/CodeSystem/v2-0203"
                }
              ]
            },
            "value": "Gen825750"
          }
        ],
        "performer": [
          {
            "identifier": {
              "system": "https://fhir.nhs.uk/Id/ods-organization-code",
              "value": "699X0"
            },
            "type": "Organization"
          }
        ],
        "status": "final",
        "subject": {
          "identifier": {
            "system": "https://fhir.nhs.uk/Id/nhs-number",
            "type": {
              "coding": [
                {
                  "code": "NH",
                  "system": "http://terminology.hl7.org/CodeSystem/v2-0203"
                }
              ]
            },
            "value": "9737383281"
          },
          "reference": "urn:uuid:805a010b-eede-41a9-ae9e-3992e98079c9"
        },
        "valueString": "A"
      }
    },
    {
      "fullUrl": "urn:uuid:dfa7c7bd-055c-49e5-8147-3472872c1f3b",
      "resource": {
        "resourceType": "Observation",
        "code": {
          "coding": [
            {
              "code": "81254-5",
              "display": "Genomic allele start-end",
              "system": "http://loinc.org"
            }
          ]
        },
        "identifier": [
          {
            "assigner": {
              "identifier": {
                "system": "https://fhir.nhs.uk/Id/ods-organization-code",
                "value": "699X0"
              }
            },
            "system": "https://fhir.nwgenomics.nhs.uk/iGene/ReportIdentifier",
            "type": {
              "coding": [
                {
                  "code": "FILL",
                  "system": "http://terminology.hl7.org/CodeSystem/v2-0203"
                }
              ]
            },
            "value": "Gen825750"
          }
        ],
        "performer": [
          {
            "identifier": {
              "system": "https://fhir.nhs.uk/Id/ods-organization-code",
              "value": "699X0"
            },
            "type": "Organization"
          }
        ],
        "status": "final",
        "subject": {
          "identifier": {
            "system": "https://fhir.nhs.uk/Id/nhs-number",
            "type": {
              "coding": [
                {
                  "code": "NH",
                  "system": "http://terminology.hl7.org/CodeSystem/v2-0203"
                }
              ]
            },
            "value": "9737383281"
          },
          "reference": "urn:uuid:805a010b-eede-41a9-ae9e-3992e98079c9"
        }
      }
    },
    {
      "fullUrl": "urn:uuid:71b96cb5-f595-4de6-ad98-1202dfb7c2a1",
      "resource": {
        "resourceType": "Observation",
        "code": {
          "coding": [
            {
              "code": "69551-0",
              "display": "Genomic alt allele",
              "system": "http://loinc.org"
            }
          ]
        },
        "identifier": [
          {
            "assigner": {
              "identifier": {
                "system": "https://fhir.nhs.uk/Id/ods-organization-code",
                "value": "699X0"
              }
            },
            "system": "https://fhir.nwgenomics.nhs.uk/iGene/ReportIdentifier",
            "type": {
              "coding": [
                {
                  "code": "FILL",
                  "system": "http://terminology.hl7.org/CodeSystem/v2-0203"
                }
              ]
            },
            "value": "Gen825750"
          }
        ],
        "performer": [
          {
            "identifier": {
              "system": "https://fhir.nhs.uk/Id/ods-organization-code",
              "value": "699X0"
            },
            "type": "Organization"
          }
        ],
        "status": "final",
        "subject": {
          "identifier": {
            "system": "https://fhir.nhs.uk/Id/nhs-number",
            "type": {
              "coding": [
                {
                  "code": "NH",
                  "system": "http://terminology.hl7.org/CodeSystem/v2-0203"
                }
              ]
            },
            "value": "9737383281"
          },
          "reference": "urn:uuid:805a010b-eede-41a9-ae9e-3992e98079c9"
        },
        "valueString": "G"
      }
    },
    {
      "fullUrl": "urn:uuid:21ca99a5-d91f-485d-93ea-47ffe1e7b3fb",
      "resource": {
        "resourceType": "Observation",
        "code": {
          "coding": [
            {
              "code": "81255-2",
              "display": "dbSNP ID",
              "system": "http://loinc.org"
            }
          ]
        },
        "identifier": [
          {
            "assigner": {
              "identifier": {
                "system": "https://fhir.nhs.uk/Id/ods-organization-code",
                "value": "699X0"
              }
            },
            "system": "https://fhir.nwgenomics.nhs.uk/iGene/ReportIdentifier",
            "type": {
              "coding": [
                {
                  "code": "FILL",
                  "system": "http://terminology.hl7.org/CodeSystem/v2-0203"
                }
              ]
            },
            "value": "Gen825750"
          }
        ],
        "performer": [
          {
            "identifier": {
              "system": "https://fhir.nhs.uk/Id/ods-organization-code",
              "value": "699X0"
            },
            "type": "Organization"
          }
        ],
        "status": "final",
        "subject": {
          "identifier": {
            "system": "https://fhir.nhs.uk/Id/nhs-number",
            "type": {
              "coding": [
                {
                  "code": "NH",
                  "system": "http://terminology.hl7.org/CodeSystem/v2-0203"
                }
              ]
            },
            "value": "9737383281"
          },
          "reference": "urn:uuid:805a010b-eede-41a9-ae9e-3992e98079c9"
        },
        "valueCodeableConcept": {
          "coding": [
            {
              "code": "rs75391579",
              "display": "rs75391579",
              "system": "http://www.ncbi.nlm.nih.gov/projects/SNP"
            }
          ]
        }
      }
    },
    {
      "fullUrl": "urn:uuid:80288b7b-34ea-4e9b-ac71-69e4a002b4aa",
      "resource": {
        "resourceType": "Observation",
        "code": {
          "coding": [
            {
              "code": "48001-2",
              "display": "Cytogenetic (chromosome) location",
              "system": "http://loinc.org"
            }
          ]
        },
        "identifier": [
          {
            "assigner": {
              "identifier": {
                "system": "https://fhir.nhs.uk/Id/ods-organization-code",
                "value": "699X0"
              }
            },
            "system": "https://fhir.nwgenomics.nhs.uk/iGene/ReportIdentifier",
            "type": {
              "coding": [
                {
                  "code": "FILL",
                  "system": "http://terminology.hl7.org/CodeSystem/v2-0203"
                }
              ]
            },
            "value": "Gen825750"
          }
        ],
        "performer": [
          {
            "identifier": {
              "system": "https://fhir.nhs.uk/Id/ods-organization-code",
              "value": "699X0"
            },
            "type": "Organization"
          }
        ],
        "status": "final",
        "subject": {
          "identifier": {
            "system": "https://fhir.nhs.uk/Id/nhs-number",
            "type": {
              "coding": [
                {
                  "code": "NH",
                  "system": "http://terminology.hl7.org/CodeSystem/v2-0203"
                }
              ]
            },
            "value": "9737383281"
          },
          "reference": "urn:uuid:805a010b-eede-41a9-ae9e-3992e98079c9"
        },
        "valueCodeableConcept": {
          "coding": [
            {
              "code": "9p13",
              "display": "9p13",
              "system": "Chrom-Loc"
            }
          ]
        }
      }
    },
    {
      "fullUrl": "urn:uuid:c9b927a2-cd25-4073-bb0d-199f9b5eabe1",
      "resource": {
        "resourceType": "Observation",
        "code": {
          "coding": [
            {
              "code": "48002-0",
              "display": "Genomic source class",
              "system": "http://loinc.org"
            }
          ]
        },
        "identifier": [
          {
            "assigner": {
              "identifier": {
                "system": "https://fhir.nhs.uk/Id/ods-organization-code",
                "value": "699X0"
              }
            },
            "system": "https://fhir.nwgenomics.nhs.uk/iGene/ReportIdentifier",
            "type": {
              "coding": [
                {
                  "code": "FILL",
                  "system": "http://terminology.hl7.org/CodeSystem/v2-0203"
                }
              ]
            },
            "value": "Gen825750"
          }
        ],
        "performer": [
          {
            "identifier": {
              "system": "https://fhir.nhs.uk/Id/ods-organization-code",
              "value": "699X0"
            },
            "type": "Organization"
          }
        ],
        "status": "final",
        "subject": {
          "identifier": {
            "system": "https://fhir.nhs.uk/Id/nhs-number",
            "type": {
              "coding": [
                {
                  "code": "NH",
                  "system": "http://terminology.hl7.org/CodeSystem/v2-0203"
                }
              ]
            },
            "value": "9737383281"
          },
          "reference": "urn:uuid:805a010b-eede-41a9-ae9e-3992e98079c9"
        },
        "valueCodeableConcept": {
          "coding": [
            {
              "code": "LA6683-2",
              "display": "Germline",
              "system": "http://loinc.org"
            }
          ]
        }
      }
    },
    {
      "fullUrl": "urn:uuid:1e87dd94-a1ea-4ce7-ad81-3756774f7e2a",
      "resource": {
        "resourceType": "Observation",
        "code": {
          "coding": [
            {
              "code": "81304-8",
              "display": "Variant analysis method type",
              "system": "http://loinc.org"
            }
          ]
        },
        "identifier": [
          {
            "assigner": {
              "identifier": {
                "system": "https://fhir.nhs.uk/Id/ods-organization-code",
                "value": "699X0"
              }
            },
            "system": "https://fhir.nwgenomics.nhs.uk/iGene/ReportIdentifier",
            "type": {
              "coding": [
                {
                  "code": "FILL",
                  "system": "http://terminology.hl7.org/CodeSystem/v2-0203"
                }
              ]
            },
            "value": "Gen825750"
          }
        ],
        "performer": [
          {
            "identifier": {
              "system": "https://fhir.nhs.uk/Id/ods-organization-code",
              "value": "699X0"
            },
            "type": "Organization"
          }
        ],
        "status": "final",
        "subject": {
          "identifier": {
            "system": "https://fhir.nhs.uk/Id/nhs-number",
            "type": {
              "coding": [
                {
                  "code": "NH",
                  "system": "http://terminology.hl7.org/CodeSystem/v2-0203"
                }
              ]
            },
            "value": "9737383281"
          },
          "reference": "urn:uuid:805a010b-eede-41a9-ae9e-3992e98079c9"
        },
        "valueCodeableConcept": {
          "coding": [
            {
              "code": "LA26418-6",
              "display": "PCR",
              "system": "http://loinc.org"
            }
          ]
        }
      }
    },
    {
      "fullUrl": "urn:uuid:85fcd86e-4514-4530-8843-a01c0cba3a21",
      "resource": {
        "resourceType": "Observation",
        "code": {
          "coding": [
            {
              "code": "53037-8",
              "display": "Genetic variation clinical significance",
              "system": "http://loinc.org"
            }
          ]
        },
        "identifier": [
          {
            "assigner": {
              "identifier": {
                "system": "https://fhir.nhs.uk/Id/ods-organization-code",
                "value": "699X0"
              }
            },
            "system": "https://fhir.nwgenomics.nhs.uk/iGene/ReportIdentifier",
            "type": {
              "coding": [
                {
                  "code": "FILL",
                  "system": "http://terminology.hl7.org/CodeSystem/v2-0203"
                }
              ]
            },
            "value": "Gen825750"
          }
        ],
        "performer": [
          {
            "identifier": {
              "system": "https://fhir.nhs.uk/Id/ods-organization-code",
              "value": "699X0"
            },
            "type": "Organization"
          }
        ],
        "status": "final",
        "subject": {
          "identifier": {
            "system": "https://fhir.nhs.uk/Id/nhs-number",
            "type": {
              "coding": [
                {
                  "code": "NH",
                  "system": "http://terminology.hl7.org/CodeSystem/v2-0203"
                }
              ]
            },
            "value": "9737383281"
          },
          "reference": "urn:uuid:805a010b-eede-41a9-ae9e-3992e98079c9"
        },
        "valueCodeableConcept": {
          "coding": [
            {
              "code": "LA6668-3",
              "display": "Pathogenic",
              "system": "http://loinc.org"
            }
          ]
        }
      }
    },
    {
      "fullUrl": "urn:uuid:fb7448dd-5f27-464f-b996-a49266eeaeb7",
      "resource": {
        "resourceType": "Observation",
        "code": {
          "coding": [
            {
              "code": "69548-6",
              "display": "Genetic variant assessment",
              "system": "http://loinc.org"
            }
          ]
        },
        "identifier": [
          {
            "assigner": {
              "identifier": {
                "system": "https://fhir.nhs.uk/Id/ods-organization-code",
                "value": "699X0"
              }
            },
            "system": "https://fhir.nwgenomics.nhs.uk/iGene/ReportIdentifier",
            "type": {
              "coding": [
                {
                  "code": "FILL",
                  "system": "http://terminology.hl7.org/CodeSystem/v2-0203"
                }
              ]
            },
            "value": "Gen825750"
          }
        ],
        "performer": [
          {
            "identifier": {
              "system": "https://fhir.nhs.uk/Id/ods-organization-code",
              "value": "699X0"
            },
            "type": "Organization"
          }
        ],
        "status": "final",
        "subject": {
          "identifier": {
            "system": "https://fhir.nhs.uk/Id/nhs-number",
            "type": {
              "coding": [
                {
                  "code": "NH",
                  "system": "http://terminology.hl7.org/CodeSystem/v2-0203"
                }
              ]
            },
            "value": "9737383281"
          },
          "reference": "urn:uuid:805a010b-eede-41a9-ae9e-3992e98079c9"
        },
        "valueCodeableConcept": {
          "coding": [
            {
              "code": "LA9633-4",
              "display": "Present",
              "system": "http://loinc.org"
            }
          ]
        }
      }
    },
    {
      "fullUrl": "urn:uuid:80e13099-6571-4ece-887b-efbf6d09e7b8",
      "resource": {
        "resourceType": "Observation",
        "code": {
          "coding": [
            {
              "code": "81259-4",
              "display": "Probable associated phenotype",
              "system": "http://loinc.org"
            }
          ]
        },
        "identifier": [
          {
            "assigner": {
              "identifier": {
                "system": "https://fhir.nhs.uk/Id/ods-organization-code",
                "value": "699X0"
              }
            },
            "system": "https://fhir.nwgenomics.nhs.uk/iGene/ReportIdentifier",
            "type": {
              "coding": [
                {
                  "code": "FILL",
                  "system": "http://terminology.hl7.org/CodeSystem/v2-0203"
                }
              ]
            },
            "value": "Gen825750"
          }
        ],
        "performer": [
          {
            "identifier": {
              "system": "https://fhir.nhs.uk/Id/ods-organization-code",
              "value": "699X0"
            },
            "type": "Organization"
          }
        ],
        "status": "final",
        "subject": {
          "identifier": {
            "system": "https://fhir.nhs.uk/Id/nhs-number",
            "type": {
              "coding": [
                {
                  "code": "NH",
                  "system": "http://terminology.hl7.org/CodeSystem/v2-0203"
                }
              ]
            },
            "value": "9737383281"
          },
          "reference": "urn:uuid:805a010b-eede-41a9-ae9e-3992e98079c9"
        },
        "valueCodeableConcept": {
          "coding": [
            {
              "code": "C0268151",
              "display": "Deficiency of UDPglucose-hexose-1-phosphateuridylyltransferase",
              "system": "MedGen-Dis"
            }
          ]
        }
      }
    },
    {
      "fullUrl": "urn:uuid:2766c8ba-9159-4342-9651-47cb4e5d986d",
      "resource": {
        "resourceType": "Observation",
        "code": {
          "coding": [
            {
              "code": "53034-5",
              "display": "Allelic state",
              "system": "http://loinc.org"
            }
          ]
        },
        "identifier": [
          {
            "assigner": {
              "identifier": {
                "system": "https://fhir.nhs.uk/Id/ods-organization-code",
                "value": "699X0"
              }
            },
            "system": "https://fhir.nwgenomics.nhs.uk/iGene/ReportIdentifier",
            "type": {
              "coding": [
                {
                  "code": "FILL",
                  "system": "http://terminology.hl7.org/CodeSystem/v2-0203"
                }
              ]
            },
            "value": "Gen825750"
          }
        ],
        "performer": [
          {
            "identifier": {
              "system": "https://fhir.nhs.uk/Id/ods-organization-code",
              "value": "699X0"
            },
            "type": "Organization"
          }
        ],
        "status": "final",
        "subject": {
          "identifier": {
            "system": "https://fhir.nhs.uk/Id/nhs-number",
            "type": {
              "coding": [
                {
                  "code": "NH",
                  "system": "http://terminology.hl7.org/CodeSystem/v2-0203"
                }
              ]
            },
            "value": "9737383281"
          },
          "reference": "urn:uuid:805a010b-eede-41a9-ae9e-3992e98079c9"
        },
        "valueCodeableConcept": {
          "coding": [
            {
              "code": "LA6706-1",
              "display": "Heterozygous",
              "system": "http://loinc.org"
            }
          ]
        }
      }
    },
    {
      "fullUrl": "urn:uuid:e02c21e1-15d8-442f-919a-f55aa45e0ef3",
      "resource": {
        "resourceType": "ServiceRequest",
        "authoredOn": "2016-08-03",
        "category": [
          {
            "coding": [
              {
                "code": "116148004",
                "system": "http://snomed.info/sct"
              }
            ]
          }
        ],
        "code": {
          "coding": [
            {
              "code": "42318-6",
              "display": "GALT gene targeted mutation analysis",
              "system": "http://loinc.org"
            }
          ]
        },
        "identifier": [
          {
            "assigner": {
              "identifier": {
                "system": "https://fhir.nhs.uk/Id/ods-organization-code",
                "value": "R0A"
              }
            },
            "type": {
              "coding": [
                {
                  "code": "PLAC",
                  "system": "http://terminology.hl7.org/CodeSystem/v2-0203"
                }
              ]
            },
            "value": "LRI-1601716017"
          }
        ],
        "intent": "order",
        "requester": {
          "display": "Manchester University NHS Foundation Trust",
          "identifier": {
            "system": "https://fhir.nhs.uk/Id/ods-organization-code",
            "value": "R0A"
          },
          "type": "Organization"
        },
        "status": "active",
        "subject": {
          "identifier": {
            "system": "https://fhir.nhs.uk/Id/nhs-number",
            "type": {
              "coding": [
                {
                  "code": "NH",
                  "system": "http://terminology.hl7.org/CodeSystem/v2-0203"
                }
              ]
            },
            "value": "9737383281"
          },
          "reference": "urn:uuid:805a010b-eede-41a9-ae9e-3992e98079c9"
        }
      }
    },
    {
      "fullUrl": "urn:uuid:c518fd0d-fdc2-4c7e-bf06-332a732802ba",
      "resource": {
        "resourceType": "DiagnosticReport",
        "basedOn": [
          {
            "identifier": {
              "assigner": {
                "identifier": {
                  "system": "https://fhir.nhs.uk/Id/ods-organization-code",
                  "value": "R0A"
                }
              },
              "type": {
                "coding": [
                  {
                    "code": "PLAC",
                    "system": "http://terminology.hl7.org/CodeSystem/v2-0203"
                  }
                ]
              },
              "value": "LRI-1601716017"
            },
            "reference": "urn:uuid:e02c21e1-15d8-442f-919a-f55aa45e0ef3",
            "type": "ServiceRequest"
          }
        ],
        "category": [
          {
            "coding": [
              {
                "code": "GE",
                "system": "http://terminology.hl7.org/CodeSystem/v2-0074"
              }
            ]
          }
        ],
        "code": {
          "coding": [
            {
              "code": "42318-6",
              "display": "GALT gene targeted mutation analysis",
              "system": "http://loinc.org"
            }
          ]
        },
        "effectiveDateTime": "2016-08-09T16:50:00+00:00",
        "extension": [
          {
            "extension": [
              {
                "url": "reference",
                "valueReference": {
                  "display": "Genetic report",
                  "reference": "urn:uuid:8c5808c9-c1de-49d9-b7aa-8263db69dcdf",
                  "type": "DocumentReference"
                }
              },
              {
                "url": "type",
                "valueCodeableConcept": {
                  "coding": [
                    {
                      "code": "SCI",
                      "system": "http://hl7.org/fhir/diagnosticreport-relevant-information-types"
                    }
                  ]
                }
              }
            ],
            "url": "http://hl7.org/fhir/5.0/StructureDefinition/extension-DiagnosticReport.supportingInfo"
          }
        ],
        "identifier": [
          {
            "assigner": {
              "identifier": {
                "system": "https://fhir.nhs.uk/Id/ods-organization-code",
                "value": "699X0"
              }
            },
            "system": "https://fhir.nwgenomics.nhs.uk/iGene/ReportIdentifier",
            "type": {
              "coding": [
                {
                  "code": "FILL",
                  "system": "http://terminology.hl7.org/CodeSystem/v2-0203"
                }
              ]
            },
            "value": "Gen825750"
          }
        ],
        "performer": [
          {
            "display": "NHS North West Genomics",
            "identifier": {
              "system": "https://fhir.nhs.uk/Id/ods-organization-code",
              "value": "699X0"
            },
            "type": "Organization"
          }
        ],
        "presentedForm": [
          {
            "contentType": "application/pdf",
            "url": "urn:uuid:e30696c5-fdad-4414-ad58-91694725b854"
          }
        ],
        "result": [
          {
            "display": "Reason for study",
            "reference": "urn:uuid:72af581c-f293-4d82-a895-eb5ca44ce746",
            "type": "Observation"
          },
          {
            "display": "Genetic disease(s) assessed",
            "reference": "urn:uuid:8007deda-153b-4566-9ff9-53cc27437d28",
            "type": "Observation"
          },
          {
            "display": "Transcript reference sequence [Identifier]",
            "reference": "urn:uuid:4a06128a-af6c-4c73-b7df-65e1c3362695",
            "type": "Observation"
          },
          {
            "display": "Gene studied [ID]",
            "reference": "urn:uuid:65fb627f-1fea-41ba-9c57-d02bdd40edd4",
            "type": "Observation"
          },
          {
            "display": "Gene mutations tested",
            "reference": "urn:uuid:9f63bbed-5f5c-4f6d-ab03-04afa9ab16a1",
            "type": "Observation"
          },
          {
            "display": "Gene mutations tested",
            "reference": "urn:uuid:37b26f25-0b1c-4379-8221-38fca8f812ea",
            "type": "Observation"
          },
          {
            "display": "Gene mutations tested",
            "reference": "urn:uuid:836cf6e4-e305-4afe-b3ed-8a3406aac399",
            "type": "Observation"
          },
          {
            "display": "Discrete variation analysis overall interpretation",
            "reference": "urn:uuid:79efc42e-1ead-4ae9-80c6-c8bfc6f188d1",
            "type": "Observation"
          },
          {
            "display": "Human reference sequence assembly",
            "reference": "urn:uuid:9abd8aba-47c2-42d6-8300-273a0324df42",
            "type": "Observation"
          },
          {
            "display": "dbSNP version",
            "reference": "urn:uuid:344cda4e-2b70-4eb1-86be-e3702db1c047",
            "type": "Observation"
          },
          {
            "display": "Variant Category",
            "reference": "urn:uuid:6cf4b2eb-38f6-44b7-a11b-f9a7f2c1a996",
            "type": "Observation"
          },
          {
            "display": "Discrete genetic variant",
            "reference": "urn:uuid:5241bfdb-77c9-4312-84e0-a041e1ce80c9",
            "type": "Observation"
          },
          {
            "display": "Gene studied",
            "reference": "urn:uuid:a7e61f65-2522-41a2-811e-98faef502888",
            "type": "Observation"
          },
          {
            "display": "Transcript RefSeq ID",
            "reference": "urn:uuid:2e140c3d-e7cc-4f58-92c1-5dbd067c5d00",
            "type": "Observation"
          },
          {
            "display": "Transcript DNA Change (cHGVS)",
            "reference": "urn:uuid:80bbb3d5-f246-4fcb-837a-90f133c86171",
            "type": "Observation"
          },
          {
            "display": "Amino acid change p.HGVS",
            "reference": "urn:uuid:22b949d8-0f31-4a7d-b3c8-86d57ba6ddcc",
            "type": "Observation"
          },
          {
            "display": "DNA change type",
            "reference": "urn:uuid:67ea94b2-53a6-433d-a6d6-d876038b89c7",
            "type": "Observation"
          },
          {
            "display": "Amino Acid change type",
            "reference": "urn:uuid:335aa119-6a8f-439e-ba07-0a891c427cbd",
            "type": "Observation"
          },
          {
            "display": "Genomic reference sequence",
            "reference": "urn:uuid:ce155b63-807b-49ad-8291-9d90bf903000",
            "type": "Observation"
          },
          {
            "display": "Genomic DNA change(gHGVS)",
            "reference": "urn:uuid:38d4cccc-5bab-4714-8aa4-b70b8f351766",
            "type": "Observation"
          },
          {
            "display": "Genomic ref allele",
            "reference": "urn:uuid:6f34efb6-962b-4acc-a3d6-017c2a7b86c2",
            "type": "Observation"
          },
          {
            "display": "Genomic allele start-end",
            "reference": "urn:uuid:dfa7c7bd-055c-49e5-8147-3472872c1f3b",
            "type": "Observation"
          },
          {
            "display": "Genomic alt allele",
            "reference": "urn:uuid:71b96cb5-f595-4de6-ad98-1202dfb7c2a1",
            "type": "Observation"
          },
          {
            "display": "dbSNP ID",
            "reference": "urn:uuid:21ca99a5-d91f-485d-93ea-47ffe1e7b3fb",
            "type": "Observation"
          },
          {
            "display": "Cytogenetic (chromosome) location",
            "reference": "urn:uuid:80288b7b-34ea-4e9b-ac71-69e4a002b4aa",
            "type": "Observation"
          },
          {
            "display": "Genomic source class",
            "reference": "urn:uuid:c9b927a2-cd25-4073-bb0d-199f9b5eabe1",
            "type": "Observation"
          },
          {
            "display": "Variant analysis method type",
            "reference": "urn:uuid:1e87dd94-a1ea-4ce7-ad81-3756774f7e2a",
            "type": "Observation"
          },
          {
            "display": "Genetic variation clinical significance",
            "reference": "urn:uuid:85fcd86e-4514-4530-8843-a01c0cba3a21",
            "type": "Observation"
          },
          {
            "display": "Genetic variant assessment",
            "reference": "urn:uuid:fb7448dd-5f27-464f-b996-a49266eeaeb7",
            "type": "Observation"
          },
          {
            "display": "Probable associated phenotype",
            "reference": "urn:uuid:80e13099-6571-4ece-887b-efbf6d09e7b8",
            "type": "Observation"
          },
          {
            "display": "Allelic state",
            "reference": "urn:uuid:2766c8ba-9159-4342-9651-47cb4e5d986d",
            "type": "Observation"
          }
        ],
        "status": "unknown",
        "subject": {
          "identifier": {
            "system": "https://fhir.nhs.uk/Id/nhs-number",
            "type": {
              "coding": [
                {
                  "code": "NH",
                  "system": "http://terminology.hl7.org/CodeSystem/v2-0203"
                }
              ]
            },
            "value": "9737383281"
          },
          "reference": "urn:uuid:805a010b-eede-41a9-ae9e-3992e98079c9"
        }
      }
    }
  ],
  "identifier": {
    "value": "ORIE-251014-9"
  },
  "timestamp": "2025-10-14T15:59:42+00:00",
  "type": "message"
}