{
  "resourceType": "Bundle",
  "entry": [
    {
      "fullUrl": "urn:uuid:0ea3ef18-d360-4034-abe3-cef1ab8cc374",
      "resource": {
        "resourceType": "MessageHeader",
        "destination": [
          {
            "endpoint": "https//fhir.mft.nhs.uk/Endpoint/EPIC",
            "receiver": {
              "identifier": {
                "system": "https://fhir.nhs.uk/Id/ods-organization-code",
                "value": "699X0"
              }
            }
          }
        ],
        "eventCoding": {
          "code": "R01",
          "system": "http://terminology.hl7.org/CodeSystem/v2-0003"
        },
        "focus": [
          {
            "reference": "urn:uuid:3d4b593b-1408-480a-a58e-903803d2069d"
          }
        ],
        "sender": {
          "identifier": {
            "system": "https://fhir.nhs.uk/Id/ods-organization-code",
            "value": "699X0"
          }
        },
        "source": {
          "endpoint": "https://fhir.nwgenomics.nhs.uk/Endpoint/IGENE",
          "software": "NW GLH"
        }
      }
    },
    {
      "fullUrl": "urn:uuid:fe9d1b24-fc68-4663-8b66-ad49670c44f9",
      "resource": {
        "resourceType": "Patient",
        "address": [
          {
            "postalCode": "DL8 3QN"
          }
        ],
        "birthDate": "2023-02-09",
        "gender": "female",
        "identifier": [
          {
            "system": "https://fhir.nhs.uk/Id/nhs-number",
            "type": {
              "coding": [
                {
                  "code": "NH",
                  "system": "http://terminology.hl7.org/CodeSystem/v2-0203"
                }
              ]
            },
            "value": "9737383346"
          },
          {
            "value": "MR"
          },
          {
            "assigner": {
              "identifier": {
                "system": "https://fhir.nhs.uk/Id/ods-organization-code",
                "value": "RBS"
              }
            },
            "type": {
              "coding": [
                {
                  "code": "MR",
                  "system": "http://terminology.hl7.org/CodeSystem/v2-0203"
                }
              ]
            },
            "value": "B67890"
          }
        ],
        "name": [
          {
            "family": "HAWES",
            "given": [
              "Ygritte"
            ]
          }
        ]
      }
    },
    {
      "fullUrl": "urn:uuid:74880521-ca9e-4e00-b4be-0dcf73ed7ac4",
      "resource": {
        "resourceType": "Observation",
        "category": [
          {
            "coding": [
              {
                "code": "laboratory",
                "system": "http://terminology.hl7.org/CodeSystem/observation-category"
              }
            ]
          },
          {
            "coding": [
              {
                "code": "GE",
                "system": "http://terminology.hl7.org/CodeSystem/v2-0074"
              }
            ]
          }
        ],
        "code": {
          "coding": [
            {
              "code": "81306-3",
              "display": "Variables that apply to the overall study",
              "system": "http://loinc.org"
            }
          ]
        },
        "component": [
          {
            "code": {
              "coding": [
                {
                  "code": "53577-3",
                  "display": "Reason for study",
                  "system": "http://loinc.org"
                }
              ]
            }
          },
          {
            "code": {
              "coding": [
                {
                  "code": "51967-8",
                  "display": "Genetic disease(s) assessed",
                  "system": "http://loinc.org"
                }
              ]
            },
            "valueCodeableConcept": {
              "coding": [
                {
                  "code": "C0268126",
                  "display": "Adenylosuccinate lyase deficiency",
                  "system": "MedGen-Dis"
                }
              ]
            }
          },
          {
            "code": {
              "coding": [
                {
                  "code": "51967-8",
                  "display": "Genetic disease(s) assessed",
                  "system": "http://loinc.org"
                }
              ]
            },
            "valueCodeableConcept": {
              "coding": [
                {
                  "code": "C0162635",
                  "display": "Angelman syndrome",
                  "system": "MedGen-Dis"
                }
              ]
            }
          },
          {
            "code": {
              "coding": [
                {
                  "code": "51967-8",
                  "display": "Genetic disease(s) assessed",
                  "system": "http://loinc.org"
                }
              ]
            },
            "valueCodeableConcept": {
              "coding": [
                {
                  "code": "C2748910",
                  "display": "Atypical Rett syndrome",
                  "system": "MedGen-Dis"
                }
              ]
            }
          },
          {
            "code": {
              "coding": [
                {
                  "code": "48018-6",
                  "display": "Gene studied",
                  "system": "http://loinc.org"
                }
              ]
            },
            "valueCodeableConcept": {
              "coding": [
                {
                  "code": "291",
                  "display": "ADSL",
                  "system": "http://www.genenames.org"
                }
              ]
            }
          },
          {
            "code": {
              "coding": [
                {
                  "code": "48018-6",
                  "display": "Gene studied",
                  "system": "http://loinc.org"
                }
              ]
            },
            "valueCodeableConcept": {
              "coding": [
                {
                  "code": "877",
                  "display": "ALDH7A1",
                  "system": "http://www.genenames.org"
                }
              ]
            }
          },
          {
            "code": {
              "coding": [
                {
                  "code": "48018-6",
                  "display": "Gene studied",
                  "system": "http://loinc.org"
                }
              ]
            },
            "valueCodeableConcept": {
              "coding": [
                {
                  "code": "30881",
                  "display": "ALG13",
                  "system": "http://www.genenames.org"
                }
              ]
            }
          },
          {
            "code": {
              "coding": [
                {
                  "code": "48018-6",
                  "display": "Gene studied",
                  "system": "http://loinc.org"
                }
              ]
            },
            "valueCodeableConcept": {
              "coding": [
                {
                  "code": "14561",
                  "display": "ARHGEF9",
                  "system": "http://www.genenames.org"
                }
              ]
            }
          },
          {
            "code": {
              "coding": [
                {
                  "code": "48018-6",
                  "display": "Gene studied",
                  "system": "http://loinc.org"
                }
              ]
            },
            "valueCodeableConcept": {
              "coding": [
                {
                  "code": "18060",
                  "display": "ARX",
                  "system": "http://www.genenames.org"
                }
              ]
            }
          },
          {
            "code": {
              "coding": [
                {
                  "code": "51968-6",
                  "display": "Discrete variation analysis overall interpretation",
                  "system": "http://loinc.org"
                }
              ]
            },
            "valueCodeableConcept": {
              "coding": [
                {
                  "code": "LA6576-8",
                  "display": "Positive",
                  "system": "http://loinc.org"
                }
              ]
            }
          },
          {
            "code": {
              "coding": [
                {
                  "code": "83006-7",
                  "display": "Deletion-duplication overall interpretation",
                  "system": "http://loinc.org"
                }
              ]
            },
            "valueCodeableConcept": {
              "coding": [
                {
                  "code": "LA26803-9",
                  "display": "No deletion duplications detected in studied regions",
                  "system": "http://loinc.org"
                }
              ]
            }
          },
          {
            "code": {
              "coding": [
                {
                  "code": "81293-3",
                  "display": "Description of ranges of DNA sequences examined",
                  "system": "http://loinc.org"
                }
              ]
            },
            "valueString": "The sequencing component of the test includes all genes listed above except for CHRNA7 and MAGI2, since only large deletions have been reported in these genes."
          },
          {
            "code": {
              "coding": [
                {
                  "code": "62374-4",
                  "display": "Human reference sequence assembly",
                  "system": "http://loinc.org"
                }
              ]
            },
            "valueCodeableConcept": {
              "coding": [
                {
                  "code": "LA14029-5",
                  "display": "GRCh37",
                  "system": "http://loinc.org"
                }
              ]
            }
          },
          {
            "code": {
              "coding": [
                {
                  "code": "82115-7",
                  "display": "dbSNP version",
                  "system": "http://loinc.org"
                }
              ]
            },
            "valueQuantity": {
              "system": "http://unitsofmeasure.org",
              "unit": "Attributes of First Discrete Genetic Variants: Report Section 2",
              "value": 147
            }
          }
        ],
        "effectiveDateTime": "2016-08-09T16:50:00+00:00",
        "identifier": [
          {
            "assigner": {
              "identifier": {
                "system": "https://fhir.nhs.uk/Id/ods-organization-code",
                "value": "699X0"
              }
            },
            "system": "https://fhir.nwgenomics.nhs.uk/iGene/ReportIdentifier",
            "type": {
              "coding": [
                {
                  "code": "FILL",
                  "system": "http://terminology.hl7.org/CodeSystem/v2-0203"
                }
              ]
            },
            "value": "Gen825750-LRI4"
          }
        ],
        "meta": {
          "profile": [
            "https://fhir.nwgenomics.nhs.uk/StructureDefinition/GenomicStudyPanel"
          ]
        },
        "performer": [
          {
            "identifier": {
              "system": "https://fhir.nhs.uk/Id/ods-organization-code",
              "value": "699X0"
            },
            "type": "Organization"
          }
        ],
        "status": "final",
        "subject": {
          "identifier": {
            "system": "https://fhir.nhs.uk/Id/nhs-number",
            "type": {
              "coding": [
                {
                  "code": "NH",
                  "system": "http://terminology.hl7.org/CodeSystem/v2-0203"
                }
              ]
            },
            "value": "9737383346"
          },
          "reference": "urn:uuid:fe9d1b24-fc68-4663-8b66-ad49670c44f9"
        },
        "valueString": "Patient may have infantile epilepsy."
      }
    },
    {
      "fullUrl": "urn:uuid:514f4611-1183-478d-910f-f4a69a0666ec",
      "resource": {
        "resourceType": "Binary",
        "contentType": "application/pdf",
        "data": ""
      }
    },
    {
      "fullUrl": "urn:uuid:208a360c-7320-467d-bab5-63722296531f",
      "resource": {
        "resourceType": "DocumentReference",
        "content": [
          {
            "attachment": {
              "contentType": "application/pdf",
              "url": "urn:uuid:514f4611-1183-478d-910f-f4a69a0666ec"
            }
          }
        ],
        "context": {
          "period": {
            "end": "2016-08-09T16:50:00+00:00",
            "start": "2016-08-09T16:50:00+00:00"
          },
          "related": [
            {
              "identifier": {
                "assigner": {
                  "identifier": {
                    "system": "https://fhir.nhs.uk/Id/ods-organization-code",
                    "value": "RBS"
                  }
                },
                "type": {
                  "coding": [
                    {
                      "code": "PLAC",
                      "system": "http://terminology.hl7.org/CodeSystem/v2-0203"
                    }
                  ]
                },
                "value": "LRI-5280001671"
              },
              "reference": "urn:uuid:9175171e-c206-4042-8614-d978347edbae",
              "type": "ServiceRequest"
            },
            {
              "identifier": {
                "assigner": {
                  "identifier": {
                    "system": "https://fhir.nhs.uk/Id/ods-organization-code",
                    "value": "699X0"
                  }
                },
                "system": "https://fhir.nwgenomics.nhs.uk/iGene/ReportIdentifier",
                "type": {
                  "coding": [
                    {
                      "code": "FILL",
                      "system": "http://terminology.hl7.org/CodeSystem/v2-0203"
                    }
                  ]
                },
                "value": "Gen825750-LRI4"
              },
              "reference": "urn:uuid:3d4b593b-1408-480a-a58e-903803d2069d",
              "type": "DiagnosticReport"
            }
          ],
          "sourcePatientInfo": {
            "identifier": {
              "assigner": {
                "identifier": {
                  "system": "https://fhir.nhs.uk/Id/ods-organization-code",
                  "value": "RBS"
                }
              },
              "type": {
                "coding": [
                  {
                    "code": "MR",
                    "system": "http://terminology.hl7.org/CodeSystem/v2-0203"
                  }
                ]
              },
              "value": "B67890"
            }
          }
        },
        "custodian": {
          "identifier": {
            "system": "https://fhir.nhs.uk/Id/ods-organization-code",
            "value": "699X0"
          },
          "type": "Organization"
        },
        "date": "2016-08-09T16:50:00+00:00",
        "identifier": [
          {
            "assigner": {
              "identifier": {
                "system": "https://fhir.nhs.uk/Id/ods-organization-code",
                "value": "699X0"
              }
            },
            "system": "https://fhir.nwgenomics.nhs.uk/iGene/ReportIdentifier",
            "type": {
              "coding": [
                {
                  "code": "FILL",
                  "system": "http://terminology.hl7.org/CodeSystem/v2-0203"
                }
              ]
            },
            "value": "Gen825750-LRI4"
          }
        ],
        "status": "current",
        "subject": {
          "identifier": {
            "system": "https://fhir.nhs.uk/Id/nhs-number",
            "type": {
              "coding": [
                {
                  "code": "NH",
                  "system": "http://terminology.hl7.org/CodeSystem/v2-0203"
                }
              ]
            },
            "value": "9737383346"
          },
          "reference": "urn:uuid:fe9d1b24-fc68-4663-8b66-ad49670c44f9"
        },
        "type": {
          "coding": [
            {
              "code": "1054161000000101",
              "display": "Genetic report",
              "system": "http://snomed.info/sct"
            }
          ]
        }
      }
    },
    {
      "fullUrl": "urn:uuid:1cd5764d-354d-4e78-9a25-b324dcb8fd7f",
      "resource": {
        "resourceType": "Observation",
        "category": [
          {
            "coding": [
              {
                "code": "laboratory",
                "system": "http://terminology.hl7.org/CodeSystem/observation-category"
              }
            ]
          },
          {
            "coding": [
              {
                "code": "GE",
                "system": "http://terminology.hl7.org/CodeSystem/v2-0074"
              }
            ]
          },
          {
            "coding": [
              {
                "code": "LA26801-3",
                "display": "SimpleVariant",
                "system": "http://loinc.org"
              }
            ]
          }
        ],
        "code": {
          "coding": [
            {
              "code": "69548-6",
              "display": "Genetic variant assessment",
              "system": "http://loinc.org"
            }
          ]
        },
        "component": [
          {
            "code": {
              "coding": [
                {
                  "code": "81252-9",
                  "display": "Discrete genetic variant",
                  "system": "http://loinc.org"
                }
              ]
            },
            "valueCodeableConcept": {
              "coding": [
                {
                  "code": "No-Variant-ID",
                  "display": "NM_007254.3(PNKP):c.1315C>T(p.Arg439Ter)",
                  "system": "http://www.ncbi.nlm.nih.gov/clinvar"
                }
              ]
            }
          },
          {
            "code": {
              "coding": [
                {
                  "code": "48018-6",
                  "display": "Gene studied",
                  "system": "http://loinc.org"
                }
              ]
            },
            "valueCodeableConcept": {
              "coding": [
                {
                  "code": "9154",
                  "display": "PNKP",
                  "system": "http://www.genenames.org"
                }
              ]
            }
          },
          {
            "code": {
              "coding": [
                {
                  "code": "51958-7",
                  "display": "Transcript RefSeq ID",
                  "system": "http://loinc.org"
                }
              ]
            },
            "valueCodeableConcept": {
              "coding": [
                {
                  "code": "NM_007254.3",
                  "display": "NM_007254.3",
                  "system": "http://www.ncbi.nlm.nih.gov/refseq"
                }
              ]
            }
          },
          {
            "code": {
              "coding": [
                {
                  "code": "41103-3",
                  "display": "Transcript DNA Change (cHGVS)",
                  "system": "http://loinc.org"
                }
              ]
            },
            "valueCodeableConcept": {
              "coding": [
                {
                  "code": "c.610C>T",
                  "display": "c.1315C>T",
                  "system": "http://varnomen.hgvs.org"
                }
              ]
            }
          },
          {
            "code": {
              "coding": [
                {
                  "code": "48005-3",
                  "display": "Amino acid change p.HGVS",
                  "system": "http://loinc.org"
                }
              ]
            },
            "valueCodeableConcept": {
              "coding": [
                {
                  "code": "p.Arg204Ter",
                  "display": "p.Arg439Ter",
                  "system": "http://varnomen.hgvs.org"
                }
              ]
            }
          },
          {
            "code": {
              "coding": [
                {
                  "code": "48019-4",
                  "display": "DNA change type",
                  "system": "http://loinc.org"
                }
              ]
            },
            "valueCodeableConcept": {
              "coding": [
                {
                  "code": "LA6690-7",
                  "display": "Substitution",
                  "system": "http://loinc.org"
                }
              ]
            }
          },
          {
            "code": {
              "coding": [
                {
                  "code": "48006-1",
                  "display": "Amino acid change type",
                  "system": "http://loinc.org"
                }
              ]
            },
            "valueCodeableConcept": {
              "coding": [
                {
                  "code": "LA6699-8",
                  "display": "Nonsense",
                  "system": "http://loinc.org"
                }
              ]
            }
          },
          {
            "code": {
              "coding": [
                {
                  "code": "81290-9",
                  "display": "Genomic DNA change (gHGVS)",
                  "system": "http://loinc.org"
                }
              ]
            },
            "valueCodeableConcept": {
              "coding": [
                {
                  "code": "NC_000019.9",
                  "display": "NC_000019.9",
                  "system": "http://www.ncbi.nlm.nih.gov/refseq"
                }
              ]
            }
          },
          {
            "code": {
              "coding": [
                {
                  "code": "69547-8",
                  "display": "Genomic ref allele",
                  "system": "http://loinc.org"
                }
              ]
            },
            "valueString": "G"
          },
          {
            "code": {
              "coding": [
                {
                  "code": "81254-5",
                  "display": "Genomic allele start-end",
                  "system": "http://loinc.org"
                }
              ]
            },
            "valueRange": {
              "high": {
                "system": "http://unitsofmeasure.org",
                "value": 50367462
              },
              "low": {
                "system": "http://unitsofmeasure.org",
                "value": 50367462
              }
            }
          },
          {
            "code": {
              "coding": [
                {
                  "code": "69551-0",
                  "display": "Genomic alt allele",
                  "system": "http://loinc.org"
                }
              ]
            },
            "valueString": "A"
          },
          {
            "code": {
              "coding": [
                {
                  "code": "81255-2",
                  "display": "dbSNP ID",
                  "system": "http://loinc.org"
                }
              ]
            },
            "valueCodeableConcept": {
              "coding": [
                {
                  "code": "rs796052850",
                  "display": "rs796052850",
                  "system": "http://www.ncbi.nlm.nih.gov/projects/SNP"
                }
              ]
            }
          },
          {
            "code": {
              "coding": [
                {
                  "code": "48001-2",
                  "display": "Cytogenetic (chromosome) location",
                  "system": "http://loinc.org"
                }
              ]
            },
            "valueCodeableConcept": {
              "coding": [
                {
                  "code": "19q13.33",
                  "display": "19q13.33",
                  "system": "Chrom-Loc"
                }
              ]
            }
          },
          {
            "code": {
              "coding": [
                {
                  "code": "48002-0",
                  "display": "Genomic source class",
                  "system": "http://loinc.org"
                }
              ]
            },
            "valueCodeableConcept": {
              "coding": [
                {
                  "code": "LA6683-2",
                  "display": "Germline",
                  "system": "http://loinc.org"
                }
              ]
            }
          },
          {
            "code": {
              "coding": [
                {
                  "code": "53037-8",
                  "display": "Genetic variation clinical significance",
                  "system": "http://loinc.org"
                }
              ]
            },
            "valueCodeableConcept": {
              "coding": [
                {
                  "code": "LA6668-3",
                  "display": "Pathogenic",
                  "system": "http://loinc.org"
                }
              ]
            }
          },
          {
            "code": {
              "coding": [
                {
                  "code": "69548-6",
                  "display": "Genomic variant assessment",
                  "system": "http://loinc.org"
                }
              ]
            },
            "valueCodeableConcept": {
              "coding": [
                {
                  "code": "LA9633-4",
                  "display": "Present",
                  "system": "http://loinc.org"
                }
              ]
            }
          },
          {
            "code": {
              "coding": [
                {
                  "code": "53034-5",
                  "display": "Allelic state",
                  "system": "http://loinc.org"
                }
              ]
            },
            "valueCodeableConcept": {
              "coding": [
                {
                  "code": "LA6706-1",
                  "display": "Heterozygous",
                  "system": "http://loinc.org"
                }
              ]
            }
          }
        ],
        "effectiveDateTime": "2016-08-09T16:50:00+00:00",
        "identifier": [
          {
            "assigner": {
              "identifier": {
                "system": "https://fhir.nhs.uk/Id/ods-organization-code",
                "value": "699X0"
              }
            },
            "system": "https://fhir.nwgenomics.nhs.uk/iGene/ReportIdentifier",
            "type": {
              "coding": [
                {
                  "code": "FILL",
                  "system": "http://terminology.hl7.org/CodeSystem/v2-0203"
                }
              ]
            },
            "value": "Gen825750-LRI4"
          }
        ],
        "meta": {
          "profile": [
            "https://fhir.nwgenomics.nhs.uk/StructureDefinition/Variant"
          ]
        },
        "method": {
          "coding": [
            {
              "code": "LA26400-4",
              "display": "SNP array",
              "system": "http://loinc.org"
            }
          ]
        },
        "performer": [
          {
            "identifier": {
              "system": "https://fhir.nhs.uk/Id/ods-organization-code",
              "value": "699X0"
            },
            "type": "Organization"
          }
        ],
        "status": "final",
        "subject": {
          "identifier": {
            "system": "https://fhir.nhs.uk/Id/nhs-number",
            "type": {
              "coding": [
                {
                  "code": "NH",
                  "system": "http://terminology.hl7.org/CodeSystem/v2-0203"
                }
              ]
            },
            "value": "9737383346"
          },
          "reference": "urn:uuid:fe9d1b24-fc68-4663-8b66-ad49670c44f9"
        },
        "valueCodeableConcept": {
          "coding": [
            {
              "code": "9154",
              "display": "PNKP",
              "system": "http://www.genenames.org"
            }
          ]
        }
      }
    },
    {
      "fullUrl": "urn:uuid:21308855-003f-42ee-ad92-3196f858a63e",
      "resource": {
        "resourceType": "Observation",
        "category": [
          {
            "coding": [
              {
                "code": "laboratory",
                "system": "http://terminology.hl7.org/CodeSystem/observation-category"
              }
            ]
          },
          {
            "coding": [
              {
                "code": "GE",
                "system": "http://terminology.hl7.org/CodeSystem/v2-0074"
              }
            ]
          }
        ],
        "code": {
          "coding": [
            {
              "code": "412731001",
              "display": "Genetic finding detected",
              "system": "http://snomed.info/sct"
            },
            {
              "code": "diagnostic-implication",
              "system": "http://hl7.org/fhir/uv/genomics-reporting/CodeSystem/tbd-codes-cs"
            },
            {
              "code": "CN218420",
              "display": "Developmental delay AND/OR other significant developmental or morphological phenotypes",
              "system": "MedGen-Dis"
            }
          ]
        },
        "component": [
          {
            "code": {
              "coding": [
                {
                  "code": "81259-4",
                  "display": "Probable associated phenotype",
                  "system": "http://loinc.org"
                }
              ]
            },
            "valueCodeableConcept": {
              "coding": [
                {
                  "code": "CN218420",
                  "display": "Developmental delay AND/OR other significant developmental or morphological phenotypes",
                  "system": "MedGen-Dis"
                }
              ]
            }
          },
          {
            "code": {
              "coding": [
                {
                  "code": "53037-8",
                  "display": "Genetic variation clinical significance",
                  "system": "http://loinc.org"
                }
              ]
            },
            "valueCodeableConcept": {
              "coding": [
                {
                  "code": "LA6671-7",
                  "display": "Uncertain Significance",
                  "system": "http://loinc.org"
                }
              ]
            }
          }
        ],
        "derivedFrom": [
          {
            "reference": "urn:uuid:1cd5764d-354d-4e78-9a25-b324dcb8fd7f",
            "type": "Observation"
          }
        ],
        "effectiveDateTime": "2016-08-09T16:50:00+00:00",
        "identifier": [
          {
            "assigner": {
              "identifier": {
                "system": "https://fhir.nhs.uk/Id/ods-organization-code",
                "value": "699X0"
              }
            },
            "system": "https://fhir.nwgenomics.nhs.uk/iGene/ReportIdentifier",
            "type": {
              "coding": [
                {
                  "code": "FILL",
                  "system": "http://terminology.hl7.org/CodeSystem/v2-0203"
                }
              ]
            },
            "value": "Gen825750-LRI4"
          }
        ],
        "meta": {
          "profile": [
            "https://fhir.nwgenomics.nhs.uk/StructureDefinition/DiagnosticImplication"
          ]
        },
        "performer": [
          {
            "identifier": {
              "system": "https://fhir.nhs.uk/Id/ods-organization-code",
              "value": "699X0"
            },
            "type": "Organization"
          }
        ],
        "status": "final",
        "subject": {
          "identifier": {
            "system": "https://fhir.nhs.uk/Id/nhs-number",
            "type": {
              "coding": [
                {
                  "code": "NH",
                  "system": "http://terminology.hl7.org/CodeSystem/v2-0203"
                }
              ]
            },
            "value": "9737383346"
          },
          "reference": "urn:uuid:fe9d1b24-fc68-4663-8b66-ad49670c44f9"
        }
      }
    },
    {
      "fullUrl": "urn:uuid:567ffd5e-aef9-4527-90b8-f98f14b66868",
      "resource": {
        "resourceType": "Observation",
        "category": [
          {
            "coding": [
              {
                "code": "laboratory",
                "system": "http://terminology.hl7.org/CodeSystem/observation-category"
              }
            ]
          },
          {
            "coding": [
              {
                "code": "GE",
                "system": "http://terminology.hl7.org/CodeSystem/v2-0074"
              }
            ]
          },
          {
            "coding": [
              {
                "code": "LA26801-3",
                "display": "Simple Variant",
                "system": "http://loinc.org"
              }
            ]
          }
        ],
        "code": {
          "coding": [
            {
              "code": "69548-6",
              "display": "Genetic variant assessment",
              "system": "http://loinc.org"
            }
          ]
        },
        "component": [
          {
            "code": {
              "coding": [
                {
                  "code": "81252-9",
                  "display": "Discrete genetic variant",
                  "system": "http://loinc.org"
                }
              ]
            },
            "valueCodeableConcept": {
              "coding": [
                {
                  "code": "130039",
                  "display": "NM_145239.2(PRRT2):c.67G>A(p.Glu23Lys)",
                  "system": "http://www.ncbi.nlm.nih.gov/clinvar"
                }
              ]
            }
          },
          {
            "code": {
              "coding": [
                {
                  "code": "48018-6",
                  "display": "Gene studied",
                  "system": "http://loinc.org"
                }
              ]
            },
            "valueCodeableConcept": {
              "coding": [
                {
                  "code": "30500",
                  "display": "PRRT2",
                  "system": "http://www.genenames.org"
                }
              ]
            }
          },
          {
            "code": {
              "coding": [
                {
                  "code": "51958-7",
                  "display": "Transcript RefSeq ID",
                  "system": "http://loinc.org"
                }
              ]
            },
            "valueCodeableConcept": {
              "coding": [
                {
                  "code": "NM_145239.2",
                  "display": "NM_145239.2",
                  "system": "http://www.ncbi.nlm.nih.gov/refseq"
                }
              ]
            }
          },
          {
            "code": {
              "coding": [
                {
                  "code": "41103-3",
                  "display": "Transcript DNA Change (cHGVS)",
                  "system": "http://loinc.org"
                }
              ]
            },
            "valueCodeableConcept": {
              "coding": [
                {
                  "code": "c.67G>A",
                  "display": "c.67G>A",
                  "system": "http://varnomen.hgvs.org"
                }
              ]
            }
          },
          {
            "code": {
              "coding": [
                {
                  "code": "48005-3",
                  "display": "Amino acid change p.HGVS",
                  "system": "http://loinc.org"
                }
              ]
            },
            "valueCodeableConcept": {
              "coding": [
                {
                  "code": "p.Glu23Lys",
                  "display": "p.Glu23Lys",
                  "system": "http://varnomen.hgvs.org"
                }
              ]
            }
          },
          {
            "code": {
              "coding": [
                {
                  "code": "48019-4",
                  "display": "DNA change type",
                  "system": "http://loinc.org"
                }
              ]
            },
            "valueCodeableConcept": {
              "coding": [
                {
                  "code": "LA6690-7",
                  "display": "Substitution",
                  "system": "http://loinc.org"
                }
              ]
            }
          },
          {
            "code": {
              "coding": [
                {
                  "code": "81290-9",
                  "display": "Genomic DNA change (gHGVS)",
                  "system": "http://loinc.org"
                }
              ]
            },
            "valueCodeableConcept": {
              "coding": [
                {
                  "code": "NC_000016.9",
                  "display": "NC_000016.9",
                  "system": "http://www.ncbi.nlm.nih.gov/refseq"
                }
              ]
            }
          },
          {
            "code": {
              "coding": [
                {
                  "code": "69547-8",
                  "display": "Genomic ref allele",
                  "system": "http://loinc.org"
                }
              ]
            },
            "valueString": "G"
          },
          {
            "code": {
              "coding": [
                {
                  "code": "81254-5",
                  "display": "Genomic allele location",
                  "system": "http://loinc.org"
                }
              ]
            },
            "valueRange": {
              "high": {
                "system": "http://unitsofmeasure.org",
                "value": 29824442
              },
              "low": {
                "system": "http://unitsofmeasure.org",
                "value": 29824442
              }
            }
          },
          {
            "code": {
              "coding": [
                {
                  "code": "69551-0",
                  "display": "Genomic alt allele",
                  "system": "http://loinc.org"
                }
              ]
            },
            "valueString": "A"
          },
          {
            "code": {
              "coding": [
                {
                  "code": "81255-2",
                  "display": "dbSNP ID",
                  "system": "http://loinc.org"
                }
              ]
            },
            "valueCodeableConcept": {
              "coding": [
                {
                  "code": "rs140383655",
                  "display": "rs140383655",
                  "system": "http://www.ncbi.nlm.nih.gov/projects/SNP"
                }
              ]
            }
          },
          {
            "code": {
              "coding": [
                {
                  "code": "48001-2",
                  "display": "Cytogenetic (chromosome) location",
                  "system": "http://loinc.org"
                }
              ]
            },
            "valueCodeableConcept": {
              "coding": [
                {
                  "code": "16p11.2",
                  "display": "16p11.2",
                  "system": "Chrom-Loc"
                }
              ]
            }
          },
          {
            "code": {
              "coding": [
                {
                  "code": "48002-0",
                  "display": "Genomic source class",
                  "system": "http://loinc.org"
                }
              ]
            },
            "valueCodeableConcept": {
              "coding": [
                {
                  "code": "LA6683-2",
                  "display": "Germline",
                  "system": "http://loinc.org"
                }
              ]
            }
          },
          {
            "code": {
              "coding": [
                {
                  "code": "53037-8",
                  "display": "Genetic variation clinical significance",
                  "system": "http://loinc.org"
                }
              ]
            },
            "valueCodeableConcept": {
              "coding": [
                {
                  "code": "LA6671-7",
                  "display": "Uncertain Significance",
                  "system": "http://loinc.org"
                }
              ]
            }
          },
          {
            "code": {
              "coding": [
                {
                  "code": "69548-6",
                  "display": "Genomic variant assessment",
                  "system": "http://loinc.org"
                }
              ]
            },
            "valueCodeableConcept": {
              "coding": [
                {
                  "code": "LA9633-4",
                  "display": "Present",
                  "system": "http://loinc.org"
                }
              ]
            }
          },
          {
            "code": {
              "coding": [
                {
                  "code": "53034-5",
                  "display": "Allelic state",
                  "system": "http://loinc.org"
                }
              ]
            },
            "valueCodeableConcept": {
              "coding": [
                {
                  "code": "LA6706-1",
                  "display": "Heterozygous",
                  "system": "http://loinc.org"
                }
              ]
            }
          }
        ],
        "effectiveDateTime": "2016-08-09T16:50:00+00:00",
        "identifier": [
          {
            "assigner": {
              "identifier": {
                "system": "https://fhir.nhs.uk/Id/ods-organization-code",
                "value": "699X0"
              }
            },
            "system": "https://fhir.nwgenomics.nhs.uk/iGene/ReportIdentifier",
            "type": {
              "coding": [
                {
                  "code": "FILL",
                  "system": "http://terminology.hl7.org/CodeSystem/v2-0203"
                }
              ]
            },
            "value": "Gen825750-LRI4"
          }
        ],
        "meta": {
          "profile": [
            "https://fhir.nwgenomics.nhs.uk/StructureDefinition/Variant"
          ]
        },
        "method": {
          "coding": [
            {
              "code": "LA26400-4",
              "display": "SNP array",
              "system": "http://loinc.org"
            }
          ]
        },
        "performer": [
          {
            "identifier": {
              "system": "https://fhir.nhs.uk/Id/ods-organization-code",
              "value": "699X0"
            },
            "type": "Organization"
          }
        ],
        "status": "final",
        "subject": {
          "identifier": {
            "system": "https://fhir.nhs.uk/Id/nhs-number",
            "type": {
              "coding": [
                {
                  "code": "NH",
                  "system": "http://terminology.hl7.org/CodeSystem/v2-0203"
                }
              ]
            },
            "value": "9737383346"
          },
          "reference": "urn:uuid:fe9d1b24-fc68-4663-8b66-ad49670c44f9"
        },
        "valueCodeableConcept": {
          "coding": [
            {
              "code": "30500",
              "display": "PRRT2",
              "system": "http://www.genenames.org"
            }
          ]
        }
      }
    },
    {
      "fullUrl": "urn:uuid:8d15e519-01b2-43c7-beea-ab6f0253a05a",
      "resource": {
        "resourceType": "Observation",
        "category": [
          {
            "coding": [
              {
                "code": "laboratory",
                "system": "http://terminology.hl7.org/CodeSystem/observation-category"
              }
            ]
          },
          {
            "coding": [
              {
                "code": "GE",
                "system": "http://terminology.hl7.org/CodeSystem/v2-0074"
              }
            ]
          }
        ],
        "code": {
          "coding": [
            {
              "code": "412731001",
              "display": "Genetic finding detected",
              "system": "http://snomed.info/sct"
            },
            {
              "code": "diagnostic-implication",
              "system": "http://hl7.org/fhir/uv/genomics-reporting/CodeSystem/tbd-codes-cs"
            },
            {
              "code": "C1510586",
              "display": "Autism spectrum disorders",
              "system": "MedGen-Dis"
            }
          ]
        },
        "component": [
          {
            "code": {
              "coding": [
                {
                  "code": "81259-4",
                  "display": "Probable associated phenotype",
                  "system": "http://loinc.org"
                }
              ]
            },
            "valueCodeableConcept": {
              "coding": [
                {
                  "code": "C1510586",
                  "display": "Autism spectrum disorders",
                  "system": "MedGen-Dis"
                }
              ]
            }
          },
          {
            "code": {
              "coding": [
                {
                  "code": "53037-8",
                  "display": "Genetic variation clinical significance",
                  "system": "http://loinc.org"
                }
              ]
            },
            "valueCodeableConcept": {
              "coding": [
                {
                  "code": "LA6674-1",
                  "display": "Likely Benign",
                  "system": "http://loinc.org"
                }
              ]
            }
          },
          {
            "code": {
              "coding": [
                {
                  "code": "53037-8",
                  "display": "Genetic variation clinical significance",
                  "system": "http://loinc.org"
                }
              ]
            },
            "valueCodeableConcept": {
              "coding": [
                {
                  "code": "LA6671-7",
                  "display": "Uncertain Significance",
                  "system": "http://loinc.org"
                }
              ]
            }
          }
        ],
        "derivedFrom": [
          {
            "reference": "urn:uuid:567ffd5e-aef9-4527-90b8-f98f14b66868",
            "type": "Observation"
          }
        ],
        "effectiveDateTime": "2016-08-09T16:50:00+00:00",
        "identifier": [
          {
            "assigner": {
              "identifier": {
                "system": "https://fhir.nhs.uk/Id/ods-organization-code",
                "value": "699X0"
              }
            },
            "system": "https://fhir.nwgenomics.nhs.uk/iGene/ReportIdentifier",
            "type": {
              "coding": [
                {
                  "code": "FILL",
                  "system": "http://terminology.hl7.org/CodeSystem/v2-0203"
                }
              ]
            },
            "value": "Gen825750-LRI4"
          }
        ],
        "meta": {
          "profile": [
            "https://fhir.nwgenomics.nhs.uk/StructureDefinition/DiagnosticImplication"
          ]
        },
        "performer": [
          {
            "identifier": {
              "system": "https://fhir.nhs.uk/Id/ods-organization-code",
              "value": "699X0"
            },
            "type": "Organization"
          }
        ],
        "status": "final",
        "subject": {
          "identifier": {
            "system": "https://fhir.nhs.uk/Id/nhs-number",
            "type": {
              "coding": [
                {
                  "code": "NH",
                  "system": "http://terminology.hl7.org/CodeSystem/v2-0203"
                }
              ]
            },
            "value": "9737383346"
          },
          "reference": "urn:uuid:fe9d1b24-fc68-4663-8b66-ad49670c44f9"
        }
      }
    },
    {
      "fullUrl": "urn:uuid:9fcc7299-d358-4329-b676-84520d5b2a10",
      "resource": {
        "resourceType": "Observation",
        "category": [
          {
            "coding": [
              {
                "code": "laboratory",
                "system": "http://terminology.hl7.org/CodeSystem/observation-category"
              }
            ]
          },
          {
            "coding": [
              {
                "code": "GE",
                "system": "http://terminology.hl7.org/CodeSystem/v2-0074"
              }
            ]
          },
          {
            "coding": [
              {
                "code": "LA26801-3",
                "display": "Simple Variant",
                "system": "http://loinc.org"
              }
            ]
          }
        ],
        "code": {
          "coding": [
            {
              "code": "69548-6",
              "display": "Genetic variant assessment",
              "system": "http://loinc.org"
            }
          ]
        },
        "component": [
          {
            "code": {
              "coding": [
                {
                  "code": "81252-9",
                  "display": "Discrete genetic variant",
                  "system": "http://loinc.org"
                }
              ]
            },
            "valueCodeableConcept": {
              "coding": [
                {
                  "code": "205776",
                  "display": "NM_001193466.1(KANSL1):c.727C>A(p.Gln243Lys)",
                  "system": "http://www.ncbi.nlm.nih.gov/clinvar"
                }
              ]
            }
          },
          {
            "code": {
              "coding": [
                {
                  "code": "48018-6",
                  "display": "Gene studied",
                  "system": "http://loinc.org"
                }
              ]
            },
            "valueCodeableConcept": {
              "coding": [
                {
                  "code": "24565",
                  "display": "KANSL1",
                  "system": "http://www.genenames.org"
                }
              ]
            }
          },
          {
            "code": {
              "coding": [
                {
                  "code": "51958-7",
                  "display": "Transcript RefSeq ID",
                  "system": "http://loinc.org"
                }
              ]
            },
            "valueCodeableConcept": {
              "coding": [
                {
                  "code": "NM_001193466.1",
                  "display": "NM_001193466.1",
                  "system": "http://www.ncbi.nlm.nih.gov/refseq"
                }
              ]
            }
          },
          {
            "code": {
              "coding": [
                {
                  "code": "41103-3",
                  "display": "Transcript DNA Change(cHGVS)",
                  "system": "http://loinc.org"
                }
              ]
            },
            "valueCodeableConcept": {
              "coding": [
                {
                  "code": "c.727C>A",
                  "display": "c.727C>A",
                  "system": "http://varnomen.hgvs.org"
                }
              ]
            }
          },
          {
            "code": {
              "coding": [
                {
                  "code": "48005-3",
                  "display": "Amino acid change p.HGVS",
                  "system": "http://loinc.org"
                }
              ]
            },
            "valueCodeableConcept": {
              "coding": [
                {
                  "code": "p.Gln243Lys",
                  "display": "p.Gln243Lys",
                  "system": "http://varnomen.hgvs.org"
                }
              ]
            }
          },
          {
            "code": {
              "coding": [
                {
                  "code": "48019-4",
                  "display": "DNA change type",
                  "system": "http://loinc.org"
                }
              ]
            },
            "valueCodeableConcept": {
              "coding": [
                {
                  "code": "LA6690-7",
                  "display": "Substitution",
                  "system": "http://loinc.org"
                }
              ]
            }
          },
          {
            "code": {
              "coding": [
                {
                  "code": "48006-1",
                  "display": "Amino acid change type",
                  "system": "http://loinc.org"
                }
              ]
            },
            "valueCodeableConcept": {
              "coding": [
                {
                  "code": "LA6698-0",
                  "display": "Missense",
                  "system": "http://loinc.org"
                }
              ]
            }
          },
          {
            "code": {
              "coding": [
                {
                  "code": "81290-9",
                  "display": "Genomic DNA change (gHGVS)",
                  "system": "http://loinc.org"
                }
              ]
            },
            "valueCodeableConcept": {
              "coding": [
                {
                  "code": "NC_000017.10",
                  "display": "NC_000017.10",
                  "system": "http://www.ncbi.nlm.nih.gov/refseq"
                }
              ]
            }
          },
          {
            "code": {
              "coding": [
                {
                  "code": "69547-8",
                  "display": "Genomic ref allele",
                  "system": "http://loinc.org"
                }
              ]
            },
            "valueString": "G"
          },
          {
            "code": {
              "coding": [
                {
                  "code": "81254-5",
                  "display": "Genomic allele location",
                  "system": "http://loinc.org"
                }
              ]
            },
            "valueRange": {
              "high": {
                "system": "http://unitsofmeasure.org",
                "value": 44248783
              },
              "low": {
                "system": "http://unitsofmeasure.org",
                "value": 44248783
              }
            }
          },
          {
            "code": {
              "coding": [
                {
                  "code": "69551-0",
                  "display": "Genomic alt allele",
                  "system": "http://loinc.org"
                }
              ]
            },
            "valueString": "T"
          },
          {
            "code": {
              "coding": [
                {
                  "code": "81255-2",
                  "display": "dbSNP ID",
                  "system": "http://loinc.org"
                }
              ]
            },
            "valueCodeableConcept": {
              "coding": [
                {
                  "code": "rs142096969",
                  "display": "rs142096969",
                  "system": "http://www.ncbi.nlm.nih.gov/projects/SNP"
                }
              ]
            }
          },
          {
            "code": {
              "coding": [
                {
                  "code": "48001-2",
                  "display": "Cytogenetic (chromosome) location",
                  "system": "http://loinc.org"
                }
              ]
            },
            "valueCodeableConcept": {
              "coding": [
                {
                  "code": "17q21.31",
                  "display": "17q21.31",
                  "system": "Chrom-Loc"
                }
              ]
            }
          },
          {
            "code": {
              "coding": [
                {
                  "code": "48002-0",
                  "display": "Genomic source class",
                  "system": "http://loinc.org"
                }
              ]
            },
            "valueCodeableConcept": {
              "coding": [
                {
                  "code": "LA6683-2",
                  "display": "Germline",
                  "system": "http://loinc.org"
                }
              ]
            }
          },
          {
            "code": {
              "coding": [
                {
                  "code": "53037-8",
                  "display": "Genetic variation clinical significance",
                  "system": "http://loinc.org"
                }
              ]
            },
            "valueCodeableConcept": {
              "coding": [
                {
                  "code": "LA6674-1",
                  "display": "Likely Benign",
                  "system": "http://loinc.org"
                }
              ]
            }
          },
          {
            "code": {
              "coding": [
                {
                  "code": "69548-6",
                  "display": "Genomic variant assessment",
                  "system": "http://loinc.org"
                }
              ]
            },
            "valueCodeableConcept": {
              "coding": [
                {
                  "code": "LA9633-4",
                  "display": "Present",
                  "system": "http://loinc.org"
                }
              ]
            }
          },
          {
            "code": {
              "coding": [
                {
                  "code": "53034-5",
                  "display": "Allelic state",
                  "system": "http://loinc.org"
                }
              ]
            },
            "valueCodeableConcept": {
              "coding": [
                {
                  "code": "LA6706-1",
                  "display": "Heterozygous",
                  "system": "http://loinc.org"
                }
              ]
            }
          }
        ],
        "effectiveDateTime": "2016-08-09T16:50:00+00:00",
        "identifier": [
          {
            "assigner": {
              "identifier": {
                "system": "https://fhir.nhs.uk/Id/ods-organization-code",
                "value": "699X0"
              }
            },
            "system": "https://fhir.nwgenomics.nhs.uk/iGene/ReportIdentifier",
            "type": {
              "coding": [
                {
                  "code": "FILL",
                  "system": "http://terminology.hl7.org/CodeSystem/v2-0203"
                }
              ]
            },
            "value": "Gen825750-LRI4"
          }
        ],
        "meta": {
          "profile": [
            "https://fhir.nwgenomics.nhs.uk/StructureDefinition/Variant"
          ]
        },
        "method": {
          "coding": [
            {
              "code": "LA26400-4",
              "display": "SNP array",
              "system": "http://loinc.org"
            }
          ]
        },
        "performer": [
          {
            "identifier": {
              "system": "https://fhir.nhs.uk/Id/ods-organization-code",
              "value": "699X0"
            },
            "type": "Organization"
          }
        ],
        "status": "final",
        "subject": {
          "identifier": {
            "system": "https://fhir.nhs.uk/Id/nhs-number",
            "type": {
              "coding": [
                {
                  "code": "NH",
                  "system": "http://terminology.hl7.org/CodeSystem/v2-0203"
                }
              ]
            },
            "value": "9737383346"
          },
          "reference": "urn:uuid:fe9d1b24-fc68-4663-8b66-ad49670c44f9"
        },
        "valueCodeableConcept": {
          "coding": [
            {
              "code": "24565",
              "display": "KANSL1",
              "system": "http://www.genenames.org"
            }
          ]
        }
      }
    },
    {
      "fullUrl": "urn:uuid:a271cce9-ed37-409e-99d4-a8932a4ff961",
      "resource": {
        "resourceType": "Observation",
        "category": [
          {
            "coding": [
              {
                "code": "laboratory",
                "system": "http://terminology.hl7.org/CodeSystem/observation-category"
              }
            ]
          },
          {
            "coding": [
              {
                "code": "GE",
                "system": "http://terminology.hl7.org/CodeSystem/v2-0074"
              }
            ]
          },
          {
            "coding": [
              {
                "code": "LA26801-3",
                "display": "Simple Variant",
                "system": "http://loinc.org"
              }
            ]
          }
        ],
        "code": {
          "coding": [
            {
              "code": "69548-6",
              "display": "Genetic variant assessment",
              "system": "http://loinc.org"
            }
          ]
        },
        "component": [
          {
            "code": {
              "coding": [
                {
                  "code": "81252-9",
                  "display": "Discrete genetic variant",
                  "system": "http://loinc.org"
                }
              ]
            },
            "valueCodeableConcept": {
              "coding": [
                {
                  "code": "159792",
                  "display": "NM_007254.3(PNKP):c.188C>T(p.Ala63Val)",
                  "system": "http://www.ncbi.nlm.nih.gov/clinvar"
                }
              ]
            }
          },
          {
            "code": {
              "coding": [
                {
                  "code": "48018-6",
                  "display": "Gene studied",
                  "system": "http://loinc.org"
                }
              ]
            },
            "valueCodeableConcept": {
              "coding": [
                {
                  "code": "9154",
                  "display": "PNKP",
                  "system": "http://www.genenames.org"
                }
              ]
            }
          },
          {
            "code": {
              "coding": [
                {
                  "code": "51958-7",
                  "display": "Transcript RefSeq ID",
                  "system": "http://loinc.org"
                }
              ]
            },
            "valueCodeableConcept": {
              "coding": [
                {
                  "code": "NM_007254.3",
                  "display": "NM_007254.3",
                  "system": "http://www.ncbi.nlm.nih.gov/refseq"
                }
              ]
            }
          },
          {
            "code": {
              "coding": [
                {
                  "code": "41103-3",
                  "display": "Transcript DNA Change (cHGVS)",
                  "system": "http://loinc.org"
                }
              ]
            },
            "valueCodeableConcept": {
              "coding": [
                {
                  "code": "c.188C>T",
                  "display": "c.188C>T",
                  "system": "http://varnomen.hgvs.org"
                }
              ]
            }
          },
          {
            "code": {
              "coding": [
                {
                  "code": "48005-3",
                  "display": "Amino acid change p.HGVS",
                  "system": "http://loinc.org"
                }
              ]
            },
            "valueCodeableConcept": {
              "coding": [
                {
                  "code": "p.Ala63Val",
                  "display": "p.Ala63Val",
                  "system": "http://varnomen.hgvs.org"
                }
              ]
            }
          },
          {
            "code": {
              "coding": [
                {
                  "code": "48019-4",
                  "display": "DNA change type",
                  "system": "http://loinc.org"
                }
              ]
            },
            "valueCodeableConcept": {
              "coding": [
                {
                  "code": "LA6690-7",
                  "display": "Substitution",
                  "system": "http://loinc.org"
                }
              ]
            }
          },
          {
            "code": {
              "coding": [
                {
                  "code": "48006-1",
                  "display": "Amino acid change type",
                  "system": "http://loinc.org"
                }
              ]
            },
            "valueCodeableConcept": {
              "coding": [
                {
                  "code": "LA6698-0",
                  "display": "Missense",
                  "system": "http://loinc.org"
                }
              ]
            }
          },
          {
            "code": {
              "coding": [
                {
                  "code": "81290-9",
                  "display": "Genomic DNA change (gHGVS)",
                  "system": "http://loinc.org"
                }
              ]
            },
            "valueCodeableConcept": {
              "coding": [
                {
                  "code": "NC_000019.9",
                  "display": "NC_000019.9",
                  "system": "http://www.ncbi.nlm.nih.gov/refseq"
                }
              ]
            }
          },
          {
            "code": {
              "coding": [
                {
                  "code": "69547-8",
                  "display": "Genomic ref allele",
                  "system": "http://loinc.org"
                }
              ]
            },
            "valueString": "G"
          },
          {
            "code": {
              "coding": [
                {
                  "code": "81254-5",
                  "display": "Genomic allele location",
                  "system": "http://loinc.org"
                }
              ]
            },
            "valueRange": {
              "high": {
                "system": "http://unitsofmeasure.org",
                "value": 50369666
              },
              "low": {
                "system": "http://unitsofmeasure.org",
                "value": 50369666
              }
            }
          },
          {
            "code": {
              "coding": [
                {
                  "code": "69551-0",
                  "display": "Genomic alt allele",
                  "system": "http://loinc.org"
                }
              ]
            },
            "valueString": "A"
          },
          {
            "code": {
              "coding": [
                {
                  "code": "81255-2",
                  "display": "dbSNP ID",
                  "system": "http://loinc.org"
                }
              ]
            },
            "valueCodeableConcept": {
              "coding": [
                {
                  "code": "rs3739173",
                  "display": "rs3739173",
                  "system": "http://www.ncbi.nlm.nih.gov/projects/SNP"
                }
              ]
            }
          },
          {
            "code": {
              "coding": [
                {
                  "code": "48001-2",
                  "display": "Cytogenetic (chromosome) location",
                  "system": "http://loinc.org"
                }
              ]
            },
            "valueCodeableConcept": {
              "coding": [
                {
                  "code": "19q13.33",
                  "display": "19q13.33",
                  "system": "Chrom-Loc"
                }
              ]
            }
          },
          {
            "code": {
              "coding": [
                {
                  "code": "48002-0",
                  "display": "Genomic source class",
                  "system": "http://loinc.org"
                }
              ]
            },
            "valueCodeableConcept": {
              "coding": [
                {
                  "code": "LA6683-2",
                  "display": "Germline",
                  "system": "http://loinc.org"
                }
              ]
            }
          },
          {
            "code": {
              "coding": [
                {
                  "code": "53037-8",
                  "display": "Genetic variation clinical significance",
                  "system": "http://loinc.org"
                }
              ]
            },
            "valueCodeableConcept": {
              "coding": [
                {
                  "code": "LA6671-7",
                  "display": "Uncertain Significance",
                  "system": "http://loinc.org"
                }
              ]
            }
          },
          {
            "code": {
              "coding": [
                {
                  "code": "69548-6",
                  "display": "Genomic variant assessment",
                  "system": "http://loinc.org"
                }
              ]
            },
            "valueCodeableConcept": {
              "coding": [
                {
                  "code": "LA9633-4",
                  "display": "Present",
                  "system": "http://loinc.org"
                }
              ]
            }
          },
          {
            "code": {
              "coding": [
                {
                  "code": "53034-5",
                  "display": "Allelic state",
                  "system": "http://loinc.org"
                }
              ]
            },
            "valueCodeableConcept": {
              "coding": [
                {
                  "code": "LA6706-1",
                  "display": "Heterozygous",
                  "system": "http://loinc.org"
                }
              ]
            }
          }
        ],
        "effectiveDateTime": "2016-08-09T16:50:00+00:00",
        "identifier": [
          {
            "assigner": {
              "identifier": {
                "system": "https://fhir.nhs.uk/Id/ods-organization-code",
                "value": "699X0"
              }
            },
            "system": "https://fhir.nwgenomics.nhs.uk/iGene/ReportIdentifier",
            "type": {
              "coding": [
                {
                  "code": "FILL",
                  "system": "http://terminology.hl7.org/CodeSystem/v2-0203"
                }
              ]
            },
            "value": "Gen825750-LRI4"
          }
        ],
        "meta": {
          "profile": [
            "https://fhir.nwgenomics.nhs.uk/StructureDefinition/Variant"
          ]
        },
        "method": {
          "coding": [
            {
              "code": "LA26400-4",
              "display": "SNP array",
              "system": "http://loinc.org"
            }
          ]
        },
        "performer": [
          {
            "identifier": {
              "system": "https://fhir.nhs.uk/Id/ods-organization-code",
              "value": "699X0"
            },
            "type": "Organization"
          }
        ],
        "status": "final",
        "subject": {
          "identifier": {
            "system": "https://fhir.nhs.uk/Id/nhs-number",
            "type": {
              "coding": [
                {
                  "code": "NH",
                  "system": "http://terminology.hl7.org/CodeSystem/v2-0203"
                }
              ]
            },
            "value": "9737383346"
          },
          "reference": "urn:uuid:fe9d1b24-fc68-4663-8b66-ad49670c44f9"
        },
        "valueCodeableConcept": {
          "coding": [
            {
              "code": "9154",
              "display": "PNKP",
              "system": "http://www.genenames.org"
            }
          ]
        }
      }
    },
    {
      "fullUrl": "urn:uuid:b6b0de97-b778-4bc8-8629-2ead5a0b326c",
      "resource": {
        "resourceType": "Observation",
        "category": [
          {
            "coding": [
              {
                "code": "laboratory",
                "system": "http://terminology.hl7.org/CodeSystem/observation-category"
              }
            ]
          },
          {
            "coding": [
              {
                "code": "GE",
                "system": "http://terminology.hl7.org/CodeSystem/v2-0074"
              }
            ]
          }
        ],
        "code": {
          "coding": [
            {
              "code": "412731001",
              "display": "Genetic finding detected",
              "system": "http://snomed.info/sct"
            },
            {
              "code": "diagnostic-implication",
              "system": "http://hl7.org/fhir/uv/genomics-reporting/CodeSystem/tbd-codes-cs"
            },
            {
              "code": "C3150667",
              "display": "Early infantile epileptic encephalopathy 10",
              "system": "MedGen-Dis"
            }
          ]
        },
        "component": [
          {
            "code": {
              "coding": [
                {
                  "code": "81259-4",
                  "display": "Probable associated phenotype",
                  "system": "http://loinc.org"
                }
              ]
            },
            "valueCodeableConcept": {
              "coding": [
                {
                  "code": "C3150667",
                  "display": "Early infantile epileptic encephalopathy 10",
                  "system": "MedGen-Dis"
                }
              ]
            }
          }
        ],
        "derivedFrom": [
          {
            "reference": "urn:uuid:a271cce9-ed37-409e-99d4-a8932a4ff961",
            "type": "Observation"
          }
        ],
        "effectiveDateTime": "2016-08-09T16:50:00+00:00",
        "identifier": [
          {
            "assigner": {
              "identifier": {
                "system": "https://fhir.nhs.uk/Id/ods-organization-code",
                "value": "699X0"
              }
            },
            "system": "https://fhir.nwgenomics.nhs.uk/iGene/ReportIdentifier",
            "type": {
              "coding": [
                {
                  "code": "FILL",
                  "system": "http://terminology.hl7.org/CodeSystem/v2-0203"
                }
              ]
            },
            "value": "Gen825750-LRI4"
          }
        ],
        "meta": {
          "profile": [
            "https://fhir.nwgenomics.nhs.uk/StructureDefinition/DiagnosticImplication"
          ]
        },
        "performer": [
          {
            "identifier": {
              "system": "https://fhir.nhs.uk/Id/ods-organization-code",
              "value": "699X0"
            },
            "type": "Organization"
          }
        ],
        "status": "final",
        "subject": {
          "identifier": {
            "system": "https://fhir.nhs.uk/Id/nhs-number",
            "type": {
              "coding": [
                {
                  "code": "NH",
                  "system": "http://terminology.hl7.org/CodeSystem/v2-0203"
                }
              ]
            },
            "value": "9737383346"
          },
          "reference": "urn:uuid:fe9d1b24-fc68-4663-8b66-ad49670c44f9"
        }
      }
    },
    {
      "fullUrl": "urn:uuid:9175171e-c206-4042-8614-d978347edbae",
      "resource": {
        "resourceType": "ServiceRequest",
        "authoredOn": "2016-08-03",
        "category": [
          {
            "coding": [
              {
                "code": "116148004",
                "system": "http://snomed.info/sct"
              }
            ]
          }
        ],
        "code": {
          "coding": [
            {
              "code": "R59.3",
              "display": "Epilepsy - early onset or syndromic (402)",
              "system": "https://fhir.nhs.uk/CodeSystem/England-GenomicTestDirectory"
            }
          ]
        },
        "identifier": [
          {
            "assigner": {
              "identifier": {
                "system": "https://fhir.nhs.uk/Id/ods-organization-code",
                "value": "RBS"
              }
            },
            "type": {
              "coding": [
                {
                  "code": "PLAC",
                  "system": "http://terminology.hl7.org/CodeSystem/v2-0203"
                }
              ]
            },
            "value": "LRI-5280001671"
          }
        ],
        "intent": "order",
        "requester": {
          "identifier": {
            "system": "https://fhir.nhs.uk/Id/ods-organization-code",
            "value": "RBS"
          },
          "type": "Organization"
        },
        "status": "active",
        "subject": {
          "identifier": {
            "system": "https://fhir.nhs.uk/Id/nhs-number",
            "type": {
              "coding": [
                {
                  "code": "NH",
                  "system": "http://terminology.hl7.org/CodeSystem/v2-0203"
                }
              ]
            },
            "value": "9737383346"
          },
          "reference": "urn:uuid:fe9d1b24-fc68-4663-8b66-ad49670c44f9"
        }
      }
    },
    {
      "fullUrl": "urn:uuid:3d4b593b-1408-480a-a58e-903803d2069d",
      "resource": {
        "resourceType": "DiagnosticReport",
        "basedOn": [
          {
            "identifier": {
              "assigner": {
                "identifier": {
                  "system": "https://fhir.nhs.uk/Id/ods-organization-code",
                  "value": "RBS"
                }
              },
              "type": {
                "coding": [
                  {
                    "code": "PLAC",
                    "system": "http://terminology.hl7.org/CodeSystem/v2-0203"
                  }
                ]
              },
              "value": "LRI-5280001671"
            },
            "reference": "urn:uuid:9175171e-c206-4042-8614-d978347edbae",
            "type": "ServiceRequest"
          }
        ],
        "category": [
          {
            "coding": [
              {
                "code": "GE",
                "system": "http://terminology.hl7.org/CodeSystem/v2-0074"
              }
            ]
          }
        ],
        "code": {
          "coding": [
            {
              "code": "R59.3",
              "display": "Epilepsy - early onset or syndromic (402)",
              "system": "https://fhir.nhs.uk/CodeSystem/England-GenomicTestDirectory"
            }
          ]
        },
        "effectiveDateTime": "2016-08-09T16:50:00+00:00",
        "identifier": [
          {
            "assigner": {
              "identifier": {
                "system": "https://fhir.nhs.uk/Id/ods-organization-code",
                "value": "699X0"
              }
            },
            "system": "https://fhir.nwgenomics.nhs.uk/iGene/ReportIdentifier",
            "type": {
              "coding": [
                {
                  "code": "FILL",
                  "system": "http://terminology.hl7.org/CodeSystem/v2-0203"
                }
              ]
            },
            "value": "Gen825750-LRI4"
          }
        ],
        "performer": [
          {
            "display": "NHS North West Genomics",
            "identifier": {
              "system": "https://fhir.nhs.uk/Id/ods-organization-code",
              "value": "699X0"
            },
            "type": "Organization"
          }
        ],
        "presentedForm": [
          {
            "contentType": "application/pdf",
            "url": "urn:uuid:514f4611-1183-478d-910f-f4a69a0666ec"
          }
        ],
        "result": [
          {
            "display": "Variables that apply to the overall study",
            "reference": "urn:uuid:74880521-ca9e-4e00-b4be-0dcf73ed7ac4",
            "type": "Observation"
          },
          {
            "display": "Genetic variant assessment",
            "reference": "urn:uuid:1cd5764d-354d-4e78-9a25-b324dcb8fd7f",
            "type": "Observation"
          },
          {
            "display": "Genetic finding detected",
            "reference": "urn:uuid:21308855-003f-42ee-ad92-3196f858a63e",
            "type": "Observation"
          },
          {
            "display": "Genetic variant assessment",
            "reference": "urn:uuid:567ffd5e-aef9-4527-90b8-f98f14b66868",
            "type": "Observation"
          },
          {
            "display": "Genetic finding detected",
            "reference": "urn:uuid:8d15e519-01b2-43c7-beea-ab6f0253a05a",
            "type": "Observation"
          },
          {
            "display": "Genetic variant assessment",
            "reference": "urn:uuid:9fcc7299-d358-4329-b676-84520d5b2a10",
            "type": "Observation"
          },
          {
            "display": "Genetic variant assessment",
            "reference": "urn:uuid:a271cce9-ed37-409e-99d4-a8932a4ff961",
            "type": "Observation"
          },
          {
            "display": "Genetic finding detected",
            "reference": "urn:uuid:b6b0de97-b778-4bc8-8629-2ead5a0b326c",
            "type": "Observation"
          }
        ],
        "status": "unknown",
        "subject": {
          "identifier": {
            "system": "https://fhir.nhs.uk/Id/nhs-number",
            "type": {
              "coding": [
                {
                  "code": "NH",
                  "system": "http://terminology.hl7.org/CodeSystem/v2-0203"
                }
              ]
            },
            "value": "9737383346"
          },
          "reference": "urn:uuid:fe9d1b24-fc68-4663-8b66-ad49670c44f9"
        }
      }
    }
  ],
  "identifier": {
    "value": "ORIE-251014-9"
  },
  "timestamp": "2025-10-14T15:59:42+00:00",
  "type": "message"
}