{
  "resourceType": "Bundle",
  "entry": [
    {
      "fullUrl": "urn:uuid:84976c3e-771a-4448-b2b9-b909d2ed7f46",
      "resource": {
        "resourceType": "MessageHeader",
        "destination": [
          {
            "endpoint": "https//fhir.mft.nhs.uk/Endpoint/EPIC",
            "receiver": {
              "identifier": {
                "system": "https://fhir.nhs.uk/Id/ods-organization-code",
                "value": "699X0"
              }
            }
          }
        ],
        "eventCoding": {
          "code": "R01",
          "system": "http://terminology.hl7.org/CodeSystem/v2-0003"
        },
        "focus": [
          {
            "reference": "urn:uuid:76c3b2c9-f2a9-499d-a6b6-2a541358e0cc"
          }
        ],
        "sender": {
          "identifier": {
            "system": "https://fhir.nhs.uk/Id/ods-organization-code",
            "value": "699X0"
          }
        },
        "source": {
          "endpoint": "https://fhir.nwgenomics.nhs.uk/Endpoint/IGENE",
          "software": "NW GLH"
        }
      }
    },
    {
      "fullUrl": "urn:uuid:43b5b4f2-77ad-46c5-8b35-0fb321d4a132",
      "resource": {
        "resourceType": "Patient",
        "address": [
          {
            "postalCode": "DL8 3QN"
          }
        ],
        "birthDate": "2023-02-09",
        "gender": "female",
        "identifier": [
          {
            "system": "https://fhir.nhs.uk/Id/nhs-number",
            "type": {
              "coding": [
                {
                  "code": "NH",
                  "system": "http://terminology.hl7.org/CodeSystem/v2-0203"
                }
              ]
            },
            "value": "9737383346"
          },
          {
            "value": "MR"
          },
          {
            "assigner": {
              "identifier": {
                "system": "https://fhir.nhs.uk/Id/ods-organization-code",
                "value": "RBS"
              }
            },
            "system": "http://www.acme.org/patient/identifier",
            "type": {
              "coding": [
                {
                  "code": "MR",
                  "system": "http://terminology.hl7.org/CodeSystem/v2-0203"
                }
              ]
            },
            "value": "B67890"
          }
        ],
        "name": [
          {
            "family": "HAWES",
            "given": [
              "Ygritte"
            ]
          }
        ]
      }
    },
    {
      "fullUrl": "urn:uuid:e91a8fa0-1523-4d7e-8ab1-50f00be79b39",
      "resource": {
        "resourceType": "Observation",
        "code": {
          "coding": [
            {
              "code": "53577-3",
              "display": "Reason for study",
              "system": "http://loinc.org"
            }
          ]
        },
        "effectiveDateTime": "2016-08-09T16:50:00+00:00",
        "identifier": [
          {
            "assigner": {
              "identifier": {
                "system": "https://fhir.nhs.uk/Id/ods-organization-code",
                "value": "699X0"
              }
            },
            "system": "https://fhir.nwgenomics.nhs.uk/iGene/ReportIdentifier",
            "type": {
              "coding": [
                {
                  "code": "FILL",
                  "system": "http://terminology.hl7.org/CodeSystem/v2-0203"
                }
              ]
            },
            "value": "Gen825750-LRI4"
          }
        ],
        "performer": [
          {
            "identifier": {
              "system": "https://fhir.nhs.uk/Id/ods-organization-code",
              "value": "699X0"
            },
            "type": "Organization"
          }
        ],
        "status": "final",
        "subject": {
          "identifier": {
            "system": "https://fhir.nhs.uk/Id/nhs-number",
            "type": {
              "coding": [
                {
                  "code": "NH",
                  "system": "http://terminology.hl7.org/CodeSystem/v2-0203"
                }
              ]
            },
            "value": "9737383346"
          },
          "reference": "urn:uuid:43b5b4f2-77ad-46c5-8b35-0fb321d4a132"
        },
        "valueString": "Patient may have infantile epilepsy."
      }
    },
    {
      "fullUrl": "urn:uuid:5b7c5ab4-7f7d-449f-8660-ed9371fe86a1",
      "resource": {
        "resourceType": "Observation",
        "code": {
          "coding": [
            {
              "code": "51967-8",
              "display": "Genetic disease(s) assessed",
              "system": "http://loinc.org"
            }
          ]
        },
        "effectiveDateTime": "2016-08-09T16:50:00+00:00",
        "identifier": [
          {
            "assigner": {
              "identifier": {
                "system": "https://fhir.nhs.uk/Id/ods-organization-code",
                "value": "699X0"
              }
            },
            "system": "https://fhir.nwgenomics.nhs.uk/iGene/ReportIdentifier",
            "type": {
              "coding": [
                {
                  "code": "FILL",
                  "system": "http://terminology.hl7.org/CodeSystem/v2-0203"
                }
              ]
            },
            "value": "Gen825750-LRI4"
          }
        ],
        "performer": [
          {
            "identifier": {
              "system": "https://fhir.nhs.uk/Id/ods-organization-code",
              "value": "699X0"
            },
            "type": "Organization"
          }
        ],
        "status": "final",
        "subject": {
          "identifier": {
            "system": "https://fhir.nhs.uk/Id/nhs-number",
            "type": {
              "coding": [
                {
                  "code": "NH",
                  "system": "http://terminology.hl7.org/CodeSystem/v2-0203"
                }
              ]
            },
            "value": "9737383346"
          },
          "reference": "urn:uuid:43b5b4f2-77ad-46c5-8b35-0fb321d4a132"
        },
        "valueCodeableConcept": {
          "coding": [
            {
              "code": "C0268126",
              "display": "Adenylosuccinate lyase deficiency",
              "system": "MedGen-Dis"
            }
          ]
        }
      }
    },
    {
      "fullUrl": "urn:uuid:0b25a714-0bfc-44a5-90b2-af1a3758d8f8",
      "resource": {
        "resourceType": "Observation",
        "code": {
          "coding": [
            {
              "code": "51967-8",
              "display": "Genetic disease(s) assessed",
              "system": "http://loinc.org"
            }
          ]
        },
        "effectiveDateTime": "2016-08-09T16:50:00+00:00",
        "identifier": [
          {
            "assigner": {
              "identifier": {
                "system": "https://fhir.nhs.uk/Id/ods-organization-code",
                "value": "699X0"
              }
            },
            "system": "https://fhir.nwgenomics.nhs.uk/iGene/ReportIdentifier",
            "type": {
              "coding": [
                {
                  "code": "FILL",
                  "system": "http://terminology.hl7.org/CodeSystem/v2-0203"
                }
              ]
            },
            "value": "Gen825750-LRI4"
          }
        ],
        "performer": [
          {
            "identifier": {
              "system": "https://fhir.nhs.uk/Id/ods-organization-code",
              "value": "699X0"
            },
            "type": "Organization"
          }
        ],
        "status": "final",
        "subject": {
          "identifier": {
            "system": "https://fhir.nhs.uk/Id/nhs-number",
            "type": {
              "coding": [
                {
                  "code": "NH",
                  "system": "http://terminology.hl7.org/CodeSystem/v2-0203"
                }
              ]
            },
            "value": "9737383346"
          },
          "reference": "urn:uuid:43b5b4f2-77ad-46c5-8b35-0fb321d4a132"
        },
        "valueCodeableConcept": {
          "coding": [
            {
              "code": "C0162635",
              "display": "Angelman syndrome",
              "system": "MedGen-Dis"
            }
          ]
        }
      }
    },
    {
      "fullUrl": "urn:uuid:f3689fbf-187c-4e2e-92b1-3426adfe9343",
      "resource": {
        "resourceType": "Observation",
        "code": {
          "coding": [
            {
              "code": "51967-8",
              "display": "Genetic disease(s) assessed",
              "system": "http://loinc.org"
            }
          ]
        },
        "effectiveDateTime": "2016-08-09T16:50:00+00:00",
        "identifier": [
          {
            "assigner": {
              "identifier": {
                "system": "https://fhir.nhs.uk/Id/ods-organization-code",
                "value": "699X0"
              }
            },
            "system": "https://fhir.nwgenomics.nhs.uk/iGene/ReportIdentifier",
            "type": {
              "coding": [
                {
                  "code": "FILL",
                  "system": "http://terminology.hl7.org/CodeSystem/v2-0203"
                }
              ]
            },
            "value": "Gen825750-LRI4"
          }
        ],
        "performer": [
          {
            "identifier": {
              "system": "https://fhir.nhs.uk/Id/ods-organization-code",
              "value": "699X0"
            },
            "type": "Organization"
          }
        ],
        "status": "final",
        "subject": {
          "identifier": {
            "system": "https://fhir.nhs.uk/Id/nhs-number",
            "type": {
              "coding": [
                {
                  "code": "NH",
                  "system": "http://terminology.hl7.org/CodeSystem/v2-0203"
                }
              ]
            },
            "value": "9737383346"
          },
          "reference": "urn:uuid:43b5b4f2-77ad-46c5-8b35-0fb321d4a132"
        },
        "valueCodeableConcept": {
          "coding": [
            {
              "code": "C2748910",
              "display": "Atypical Rett syndrome",
              "system": "MedGen-Dis"
            }
          ]
        }
      }
    },
    {
      "fullUrl": "urn:uuid:497686f3-974d-4b77-9b5f-fb00fc589df0",
      "resource": {
        "resourceType": "Observation",
        "code": {
          "coding": [
            {
              "code": "48018-6",
              "display": "Gene studied",
              "system": "http://loinc.org"
            }
          ]
        },
        "effectiveDateTime": "2016-08-09T16:50:00+00:00",
        "identifier": [
          {
            "assigner": {
              "identifier": {
                "system": "https://fhir.nhs.uk/Id/ods-organization-code",
                "value": "699X0"
              }
            },
            "system": "https://fhir.nwgenomics.nhs.uk/iGene/ReportIdentifier",
            "type": {
              "coding": [
                {
                  "code": "FILL",
                  "system": "http://terminology.hl7.org/CodeSystem/v2-0203"
                }
              ]
            },
            "value": "Gen825750-LRI4"
          }
        ],
        "performer": [
          {
            "identifier": {
              "system": "https://fhir.nhs.uk/Id/ods-organization-code",
              "value": "699X0"
            },
            "type": "Organization"
          }
        ],
        "status": "final",
        "subject": {
          "identifier": {
            "system": "https://fhir.nhs.uk/Id/nhs-number",
            "type": {
              "coding": [
                {
                  "code": "NH",
                  "system": "http://terminology.hl7.org/CodeSystem/v2-0203"
                }
              ]
            },
            "value": "9737383346"
          },
          "reference": "urn:uuid:43b5b4f2-77ad-46c5-8b35-0fb321d4a132"
        },
        "valueCodeableConcept": {
          "coding": [
            {
              "code": "291",
              "display": "ADSL",
              "system": "http://www.genenames.org"
            }
          ]
        }
      }
    },
    {
      "fullUrl": "urn:uuid:aeeb5c89-acf5-4d96-9fa8-29918f5cfa27",
      "resource": {
        "resourceType": "Observation",
        "code": {
          "coding": [
            {
              "code": "48018-6",
              "display": "Gene studied",
              "system": "http://loinc.org"
            }
          ]
        },
        "effectiveDateTime": "2016-08-09T16:50:00+00:00",
        "identifier": [
          {
            "assigner": {
              "identifier": {
                "system": "https://fhir.nhs.uk/Id/ods-organization-code",
                "value": "699X0"
              }
            },
            "system": "https://fhir.nwgenomics.nhs.uk/iGene/ReportIdentifier",
            "type": {
              "coding": [
                {
                  "code": "FILL",
                  "system": "http://terminology.hl7.org/CodeSystem/v2-0203"
                }
              ]
            },
            "value": "Gen825750-LRI4"
          }
        ],
        "performer": [
          {
            "identifier": {
              "system": "https://fhir.nhs.uk/Id/ods-organization-code",
              "value": "699X0"
            },
            "type": "Organization"
          }
        ],
        "status": "final",
        "subject": {
          "identifier": {
            "system": "https://fhir.nhs.uk/Id/nhs-number",
            "type": {
              "coding": [
                {
                  "code": "NH",
                  "system": "http://terminology.hl7.org/CodeSystem/v2-0203"
                }
              ]
            },
            "value": "9737383346"
          },
          "reference": "urn:uuid:43b5b4f2-77ad-46c5-8b35-0fb321d4a132"
        },
        "valueCodeableConcept": {
          "coding": [
            {
              "code": "877",
              "display": "ALDH7A1",
              "system": "http://www.genenames.org"
            }
          ]
        }
      }
    },
    {
      "fullUrl": "urn:uuid:374acf55-9e35-4ed7-8e63-da5a4398b46b",
      "resource": {
        "resourceType": "Observation",
        "code": {
          "coding": [
            {
              "code": "48018-6",
              "display": "Gene studied",
              "system": "http://loinc.org"
            }
          ]
        },
        "effectiveDateTime": "2016-08-09T16:50:00+00:00",
        "identifier": [
          {
            "assigner": {
              "identifier": {
                "system": "https://fhir.nhs.uk/Id/ods-organization-code",
                "value": "699X0"
              }
            },
            "system": "https://fhir.nwgenomics.nhs.uk/iGene/ReportIdentifier",
            "type": {
              "coding": [
                {
                  "code": "FILL",
                  "system": "http://terminology.hl7.org/CodeSystem/v2-0203"
                }
              ]
            },
            "value": "Gen825750-LRI4"
          }
        ],
        "performer": [
          {
            "identifier": {
              "system": "https://fhir.nhs.uk/Id/ods-organization-code",
              "value": "699X0"
            },
            "type": "Organization"
          }
        ],
        "status": "final",
        "subject": {
          "identifier": {
            "system": "https://fhir.nhs.uk/Id/nhs-number",
            "type": {
              "coding": [
                {
                  "code": "NH",
                  "system": "http://terminology.hl7.org/CodeSystem/v2-0203"
                }
              ]
            },
            "value": "9737383346"
          },
          "reference": "urn:uuid:43b5b4f2-77ad-46c5-8b35-0fb321d4a132"
        },
        "valueCodeableConcept": {
          "coding": [
            {
              "code": "30881",
              "display": "ALG13",
              "system": "http://www.genenames.org"
            }
          ]
        }
      }
    },
    {
      "fullUrl": "urn:uuid:225d5cb8-21d5-4562-bf4f-ec4cdd264406",
      "resource": {
        "resourceType": "Observation",
        "code": {
          "coding": [
            {
              "code": "48018-6",
              "display": "Gene studied",
              "system": "http://loinc.org"
            }
          ]
        },
        "effectiveDateTime": "2016-08-09T16:50:00+00:00",
        "identifier": [
          {
            "assigner": {
              "identifier": {
                "system": "https://fhir.nhs.uk/Id/ods-organization-code",
                "value": "699X0"
              }
            },
            "system": "https://fhir.nwgenomics.nhs.uk/iGene/ReportIdentifier",
            "type": {
              "coding": [
                {
                  "code": "FILL",
                  "system": "http://terminology.hl7.org/CodeSystem/v2-0203"
                }
              ]
            },
            "value": "Gen825750-LRI4"
          }
        ],
        "performer": [
          {
            "identifier": {
              "system": "https://fhir.nhs.uk/Id/ods-organization-code",
              "value": "699X0"
            },
            "type": "Organization"
          }
        ],
        "status": "final",
        "subject": {
          "identifier": {
            "system": "https://fhir.nhs.uk/Id/nhs-number",
            "type": {
              "coding": [
                {
                  "code": "NH",
                  "system": "http://terminology.hl7.org/CodeSystem/v2-0203"
                }
              ]
            },
            "value": "9737383346"
          },
          "reference": "urn:uuid:43b5b4f2-77ad-46c5-8b35-0fb321d4a132"
        },
        "valueCodeableConcept": {
          "coding": [
            {
              "code": "14561",
              "display": "ARHGEF9",
              "system": "http://www.genenames.org"
            }
          ]
        }
      }
    },
    {
      "fullUrl": "urn:uuid:fca4c054-ce2d-4fd9-8a55-5d8eef7b200b",
      "resource": {
        "resourceType": "Observation",
        "code": {
          "coding": [
            {
              "code": "48018-6",
              "display": "Gene studied",
              "system": "http://loinc.org"
            }
          ]
        },
        "effectiveDateTime": "2016-08-09T16:50:00+00:00",
        "identifier": [
          {
            "assigner": {
              "identifier": {
                "system": "https://fhir.nhs.uk/Id/ods-organization-code",
                "value": "699X0"
              }
            },
            "system": "https://fhir.nwgenomics.nhs.uk/iGene/ReportIdentifier",
            "type": {
              "coding": [
                {
                  "code": "FILL",
                  "system": "http://terminology.hl7.org/CodeSystem/v2-0203"
                }
              ]
            },
            "value": "Gen825750-LRI4"
          }
        ],
        "performer": [
          {
            "identifier": {
              "system": "https://fhir.nhs.uk/Id/ods-organization-code",
              "value": "699X0"
            },
            "type": "Organization"
          }
        ],
        "status": "final",
        "subject": {
          "identifier": {
            "system": "https://fhir.nhs.uk/Id/nhs-number",
            "type": {
              "coding": [
                {
                  "code": "NH",
                  "system": "http://terminology.hl7.org/CodeSystem/v2-0203"
                }
              ]
            },
            "value": "9737383346"
          },
          "reference": "urn:uuid:43b5b4f2-77ad-46c5-8b35-0fb321d4a132"
        },
        "valueCodeableConcept": {
          "coding": [
            {
              "code": "18060",
              "display": "ARX",
              "system": "http://www.genenames.org"
            }
          ]
        }
      }
    },
    {
      "fullUrl": "urn:uuid:af12b2c0-8bb8-47f0-933d-271e6a4303b8",
      "resource": {
        "resourceType": "Observation",
        "code": {
          "coding": [
            {
              "code": "51968-6",
              "display": "Discrete variation analysis overall interpretation",
              "system": "http://loinc.org"
            }
          ]
        },
        "effectiveDateTime": "2016-08-09T16:50:00+00:00",
        "identifier": [
          {
            "assigner": {
              "identifier": {
                "system": "https://fhir.nhs.uk/Id/ods-organization-code",
                "value": "699X0"
              }
            },
            "system": "https://fhir.nwgenomics.nhs.uk/iGene/ReportIdentifier",
            "type": {
              "coding": [
                {
                  "code": "FILL",
                  "system": "http://terminology.hl7.org/CodeSystem/v2-0203"
                }
              ]
            },
            "value": "Gen825750-LRI4"
          }
        ],
        "performer": [
          {
            "identifier": {
              "system": "https://fhir.nhs.uk/Id/ods-organization-code",
              "value": "699X0"
            },
            "type": "Organization"
          }
        ],
        "status": "final",
        "subject": {
          "identifier": {
            "system": "https://fhir.nhs.uk/Id/nhs-number",
            "type": {
              "coding": [
                {
                  "code": "NH",
                  "system": "http://terminology.hl7.org/CodeSystem/v2-0203"
                }
              ]
            },
            "value": "9737383346"
          },
          "reference": "urn:uuid:43b5b4f2-77ad-46c5-8b35-0fb321d4a132"
        },
        "valueCodeableConcept": {
          "coding": [
            {
              "code": "LA6576-8",
              "display": "Positive",
              "system": "http://loinc.org"
            }
          ]
        }
      }
    },
    {
      "fullUrl": "urn:uuid:6dec8922-da47-4fff-9651-e62dd61a18ac",
      "resource": {
        "resourceType": "Observation",
        "code": {
          "coding": [
            {
              "code": "83006-7",
              "display": "Deletion-duplication overall interpretation",
              "system": "http://loinc.org"
            }
          ]
        },
        "effectiveDateTime": "2016-08-09T16:50:00+00:00",
        "identifier": [
          {
            "assigner": {
              "identifier": {
                "system": "https://fhir.nhs.uk/Id/ods-organization-code",
                "value": "699X0"
              }
            },
            "system": "https://fhir.nwgenomics.nhs.uk/iGene/ReportIdentifier",
            "type": {
              "coding": [
                {
                  "code": "FILL",
                  "system": "http://terminology.hl7.org/CodeSystem/v2-0203"
                }
              ]
            },
            "value": "Gen825750-LRI4"
          }
        ],
        "performer": [
          {
            "identifier": {
              "system": "https://fhir.nhs.uk/Id/ods-organization-code",
              "value": "699X0"
            },
            "type": "Organization"
          }
        ],
        "status": "final",
        "subject": {
          "identifier": {
            "system": "https://fhir.nhs.uk/Id/nhs-number",
            "type": {
              "coding": [
                {
                  "code": "NH",
                  "system": "http://terminology.hl7.org/CodeSystem/v2-0203"
                }
              ]
            },
            "value": "9737383346"
          },
          "reference": "urn:uuid:43b5b4f2-77ad-46c5-8b35-0fb321d4a132"
        },
        "valueCodeableConcept": {
          "coding": [
            {
              "code": "LA26803-9",
              "display": "No deletion duplications detected in studied regions",
              "system": "http://loinc.org"
            }
          ]
        }
      }
    },
    {
      "fullUrl": "urn:uuid:0400cfbb-829f-4f9f-ac2d-c0267afed10b",
      "resource": {
        "resourceType": "Binary",
        "contentType": "application/pdf",
        "data": ""
      }
    },
    {
      "fullUrl": "urn:uuid:124719bc-f142-40f2-96bc-96b850dcedbb",
      "resource": {
        "resourceType": "DocumentReference",
        "content": [
          {
            "attachment": {
              "contentType": "application/pdf",
              "url": "urn:uuid:0400cfbb-829f-4f9f-ac2d-c0267afed10b"
            }
          }
        ],
        "context": {
          "period": {
            "end": "2016-08-09T16:50:00+00:00",
            "start": "2016-08-09T16:50:00+00:00"
          },
          "related": [
            {
              "identifier": {
                "assigner": {
                  "identifier": {
                    "system": "https://fhir.nhs.uk/Id/ods-organization-code",
                    "value": "RBS"
                  }
                },
                "type": {
                  "coding": [
                    {
                      "code": "PLAC",
                      "system": "http://terminology.hl7.org/CodeSystem/v2-0203"
                    }
                  ]
                },
                "value": "LRI-5280001671"
              },
              "reference": "urn:uuid:dfd2effe-0e4c-4ab7-a757-0df367b0470f",
              "type": "ServiceRequest"
            },
            {
              "identifier": {
                "assigner": {
                  "identifier": {
                    "system": "https://fhir.nhs.uk/Id/ods-organization-code",
                    "value": "699X0"
                  }
                },
                "system": "https://fhir.nwgenomics.nhs.uk/iGene/ReportIdentifier",
                "type": {
                  "coding": [
                    {
                      "code": "FILL",
                      "system": "http://terminology.hl7.org/CodeSystem/v2-0203"
                    }
                  ]
                },
                "value": "Gen825750-LRI4"
              },
              "reference": "urn:uuid:76c3b2c9-f2a9-499d-a6b6-2a541358e0cc",
              "type": "DiagnosticReport"
            }
          ],
          "sourcePatientInfo": {
            "identifier": {
              "assigner": {
                "identifier": {
                  "system": "https://fhir.nhs.uk/Id/ods-organization-code",
                  "value": "RBS"
                }
              },
              "system": "http://www.acme.org/patient/identifier",
              "type": {
                "coding": [
                  {
                    "code": "MR",
                    "system": "http://terminology.hl7.org/CodeSystem/v2-0203"
                  }
                ]
              },
              "value": "B67890"
            }
          }
        },
        "custodian": {
          "identifier": {
            "system": "https://fhir.nhs.uk/Id/ods-organization-code",
            "value": "699X0"
          },
          "type": "Organization"
        },
        "date": "2016-08-09T16:50:00+00:00",
        "identifier": [
          {
            "assigner": {
              "identifier": {
                "system": "https://fhir.nhs.uk/Id/ods-organization-code",
                "value": "699X0"
              }
            },
            "system": "https://fhir.nwgenomics.nhs.uk/iGene/ReportIdentifier",
            "type": {
              "coding": [
                {
                  "code": "FILL",
                  "system": "http://terminology.hl7.org/CodeSystem/v2-0203"
                }
              ]
            },
            "value": "Gen825750-LRI4"
          }
        ],
        "status": "current",
        "subject": {
          "identifier": {
            "system": "https://fhir.nhs.uk/Id/nhs-number",
            "type": {
              "coding": [
                {
                  "code": "NH",
                  "system": "http://terminology.hl7.org/CodeSystem/v2-0203"
                }
              ]
            },
            "value": "9737383346"
          },
          "reference": "urn:uuid:43b5b4f2-77ad-46c5-8b35-0fb321d4a132"
        },
        "type": {
          "coding": [
            {
              "code": "1054161000000101",
              "display": "Genetic report",
              "system": "http://snomed.info/sct"
            }
          ]
        }
      }
    },
    {
      "fullUrl": "urn:uuid:c38bb69a-3b48-482a-b2ac-9a491702f48e",
      "resource": {
        "resourceType": "Observation",
        "code": {
          "coding": [
            {
              "code": "81293-3",
              "display": "Description of ranges of DNA sequences examined",
              "system": "http://loinc.org"
            }
          ]
        },
        "effectiveDateTime": "2016-08-09T16:50:00+00:00",
        "identifier": [
          {
            "assigner": {
              "identifier": {
                "system": "https://fhir.nhs.uk/Id/ods-organization-code",
                "value": "699X0"
              }
            },
            "system": "https://fhir.nwgenomics.nhs.uk/iGene/ReportIdentifier",
            "type": {
              "coding": [
                {
                  "code": "FILL",
                  "system": "http://terminology.hl7.org/CodeSystem/v2-0203"
                }
              ]
            },
            "value": "Gen825750-LRI4"
          }
        ],
        "performer": [
          {
            "identifier": {
              "system": "https://fhir.nhs.uk/Id/ods-organization-code",
              "value": "699X0"
            },
            "type": "Organization"
          }
        ],
        "status": "final",
        "subject": {
          "identifier": {
            "system": "https://fhir.nhs.uk/Id/nhs-number",
            "type": {
              "coding": [
                {
                  "code": "NH",
                  "system": "http://terminology.hl7.org/CodeSystem/v2-0203"
                }
              ]
            },
            "value": "9737383346"
          },
          "reference": "urn:uuid:43b5b4f2-77ad-46c5-8b35-0fb321d4a132"
        },
        "valueString": "The sequencing component of the test includes all genes listed above except for CHRNA7 and MAGI2, since only large deletions have been reported in these genes."
      }
    },
    {
      "fullUrl": "urn:uuid:3b8b463f-1f61-4f37-b8b2-ffee23711262",
      "resource": {
        "resourceType": "Observation",
        "code": {
          "coding": [
            {
              "code": "62374-4",
              "display": "Human reference sequence assembly",
              "system": "http://loinc.org"
            }
          ]
        },
        "effectiveDateTime": "2016-08-09T16:50:00+00:00",
        "identifier": [
          {
            "assigner": {
              "identifier": {
                "system": "https://fhir.nhs.uk/Id/ods-organization-code",
                "value": "699X0"
              }
            },
            "system": "https://fhir.nwgenomics.nhs.uk/iGene/ReportIdentifier",
            "type": {
              "coding": [
                {
                  "code": "FILL",
                  "system": "http://terminology.hl7.org/CodeSystem/v2-0203"
                }
              ]
            },
            "value": "Gen825750-LRI4"
          }
        ],
        "performer": [
          {
            "identifier": {
              "system": "https://fhir.nhs.uk/Id/ods-organization-code",
              "value": "699X0"
            },
            "type": "Organization"
          }
        ],
        "status": "final",
        "subject": {
          "identifier": {
            "system": "https://fhir.nhs.uk/Id/nhs-number",
            "type": {
              "coding": [
                {
                  "code": "NH",
                  "system": "http://terminology.hl7.org/CodeSystem/v2-0203"
                }
              ]
            },
            "value": "9737383346"
          },
          "reference": "urn:uuid:43b5b4f2-77ad-46c5-8b35-0fb321d4a132"
        },
        "valueCodeableConcept": {
          "coding": [
            {
              "code": "LA14029-5",
              "display": "GRCh37",
              "system": "http://loinc.org"
            }
          ]
        }
      }
    },
    {
      "fullUrl": "urn:uuid:fa045b27-332d-4a8a-a51a-ff7df6587598",
      "resource": {
        "resourceType": "Observation",
        "code": {
          "coding": [
            {
              "code": "82115-7",
              "display": "dbSNP version",
              "system": "http://loinc.org"
            }
          ]
        },
        "effectiveDateTime": "2016-08-09T16:50:00+00:00",
        "identifier": [
          {
            "assigner": {
              "identifier": {
                "system": "https://fhir.nhs.uk/Id/ods-organization-code",
                "value": "699X0"
              }
            },
            "system": "https://fhir.nwgenomics.nhs.uk/iGene/ReportIdentifier",
            "type": {
              "coding": [
                {
                  "code": "FILL",
                  "system": "http://terminology.hl7.org/CodeSystem/v2-0203"
                }
              ]
            },
            "value": "Gen825750-LRI4"
          }
        ],
        "performer": [
          {
            "identifier": {
              "system": "https://fhir.nhs.uk/Id/ods-organization-code",
              "value": "699X0"
            },
            "type": "Organization"
          }
        ],
        "status": "final",
        "subject": {
          "identifier": {
            "system": "https://fhir.nhs.uk/Id/nhs-number",
            "type": {
              "coding": [
                {
                  "code": "NH",
                  "system": "http://terminology.hl7.org/CodeSystem/v2-0203"
                }
              ]
            },
            "value": "9737383346"
          },
          "reference": "urn:uuid:43b5b4f2-77ad-46c5-8b35-0fb321d4a132"
        },
        "valueQuantity": {
          "system": "http://unitsofmeasure.org",
          "unit": "Attributes of First Discrete Genetic Variants: Report Section 2",
          "value": 147
        }
      }
    },
    {
      "fullUrl": "urn:uuid:ea9fe487-9092-4904-8340-5f4cf71b517b",
      "resource": {
        "resourceType": "Observation",
        "category": [
          {
            "coding": [
              {
                "code": "laboratory",
                "system": "http://terminology.hl7.org/CodeSystem/observation-category"
              }
            ]
          },
          {
            "coding": [
              {
                "code": "GE",
                "system": "http://terminology.hl7.org/CodeSystem/v2-0074"
              }
            ]
          },
          {
            "coding": [
              {
                "code": "LA26801-3",
                "display": "SimpleVariant",
                "system": "http://loinc.org"
              }
            ]
          }
        ],
        "code": {
          "coding": [
            {
              "code": "69548-6",
              "display": "Genetic variant assessment",
              "system": "http://loinc.org"
            }
          ]
        },
        "component": [
          {
            "code": {
              "coding": [
                {
                  "code": "81252-9",
                  "display": "Discrete genetic variant",
                  "system": "http://loinc.org"
                }
              ]
            },
            "valueCodeableConcept": {
              "coding": [
                {
                  "code": "No-Variant-ID",
                  "display": "NM_007254.3(PNKP):c.1315C>T(p.Arg439Ter)",
                  "system": "http://www.ncbi.nlm.nih.gov/clinvar"
                }
              ]
            }
          },
          {
            "code": {
              "coding": [
                {
                  "code": "48018-6",
                  "display": "Gene studied",
                  "system": "http://loinc.org"
                }
              ]
            },
            "valueCodeableConcept": {
              "coding": [
                {
                  "code": "9154",
                  "display": "PNKP",
                  "system": "http://www.genenames.org"
                }
              ]
            }
          },
          {
            "code": {
              "coding": [
                {
                  "code": "51958-7",
                  "display": "Transcript RefSeq ID",
                  "system": "http://loinc.org"
                }
              ]
            },
            "valueCodeableConcept": {
              "coding": [
                {
                  "code": "NM_007254.3",
                  "display": "NM_007254.3",
                  "system": "http://www.ncbi.nlm.nih.gov/refseq"
                }
              ]
            }
          },
          {
            "code": {
              "coding": [
                {
                  "code": "41103-3",
                  "display": "Transcript DNA Change (cHGVS)",
                  "system": "http://loinc.org"
                }
              ]
            },
            "valueCodeableConcept": {
              "coding": [
                {
                  "code": "c.610C>T",
                  "display": "c.1315C>T",
                  "system": "http://varnomen.hgvs.org"
                }
              ]
            }
          },
          {
            "code": {
              "coding": [
                {
                  "code": "48005-3",
                  "display": "Amino acid change p.HGVS",
                  "system": "http://loinc.org"
                }
              ]
            },
            "valueCodeableConcept": {
              "coding": [
                {
                  "code": "p.Arg204Ter",
                  "display": "p.Arg439Ter",
                  "system": "http://varnomen.hgvs.org"
                }
              ]
            }
          },
          {
            "code": {
              "coding": [
                {
                  "code": "48019-4",
                  "display": "DNA change type",
                  "system": "http://loinc.org"
                }
              ]
            },
            "valueCodeableConcept": {
              "coding": [
                {
                  "code": "LA6690-7",
                  "display": "Substitution",
                  "system": "http://loinc.org"
                }
              ]
            }
          },
          {
            "code": {
              "coding": [
                {
                  "code": "48006-1",
                  "display": "Amino acid change type",
                  "system": "http://loinc.org"
                }
              ]
            },
            "valueCodeableConcept": {
              "coding": [
                {
                  "code": "LA6699-8",
                  "display": "Nonsense",
                  "system": "http://loinc.org"
                }
              ]
            }
          },
          {
            "code": {
              "coding": [
                {
                  "code": "81290-9",
                  "display": "Genomic DNA change (gHGVS)",
                  "system": "http://loinc.org"
                }
              ]
            },
            "valueCodeableConcept": {
              "coding": [
                {
                  "code": "NC_000019.9",
                  "display": "NC_000019.9",
                  "system": "http://www.ncbi.nlm.nih.gov/refseq"
                }
              ]
            }
          },
          {
            "code": {
              "coding": [
                {
                  "code": "69547-8",
                  "display": "Genomic ref allele",
                  "system": "http://loinc.org"
                }
              ]
            },
            "valueString": "G"
          },
          {
            "code": {
              "coding": [
                {
                  "code": "81254-5",
                  "display": "Genomic allele start-end",
                  "system": "http://loinc.org"
                }
              ]
            },
            "valueRange": {
              "high": {
                "system": "http://unitsofmeasure.org",
                "value": 50367462
              },
              "low": {
                "system": "http://unitsofmeasure.org",
                "value": 50367462
              }
            }
          },
          {
            "code": {
              "coding": [
                {
                  "code": "69551-0",
                  "display": "Genomic alt allele",
                  "system": "http://loinc.org"
                }
              ]
            },
            "valueString": "A"
          },
          {
            "code": {
              "coding": [
                {
                  "code": "81255-2",
                  "display": "dbSNP ID",
                  "system": "http://loinc.org"
                }
              ]
            },
            "valueCodeableConcept": {
              "coding": [
                {
                  "code": "rs796052850",
                  "display": "rs796052850",
                  "system": "http://www.ncbi.nlm.nih.gov/projects/SNP"
                }
              ]
            }
          },
          {
            "code": {
              "coding": [
                {
                  "code": "48001-2",
                  "display": "Cytogenetic (chromosome) location",
                  "system": "http://loinc.org"
                }
              ]
            },
            "valueCodeableConcept": {
              "coding": [
                {
                  "code": "19q13.33",
                  "display": "19q13.33",
                  "system": "Chrom-Loc"
                }
              ]
            }
          },
          {
            "code": {
              "coding": [
                {
                  "code": "48002-0",
                  "display": "Genomic source class",
                  "system": "http://loinc.org"
                }
              ]
            },
            "valueCodeableConcept": {
              "coding": [
                {
                  "code": "LA6683-2",
                  "display": "Germline",
                  "system": "http://loinc.org"
                }
              ]
            }
          },
          {
            "code": {
              "coding": [
                {
                  "code": "53037-8",
                  "display": "Genetic variation clinical significance",
                  "system": "http://loinc.org"
                }
              ]
            },
            "valueCodeableConcept": {
              "coding": [
                {
                  "code": "LA6668-3",
                  "display": "Pathogenic",
                  "system": "http://loinc.org"
                }
              ]
            }
          },
          {
            "code": {
              "coding": [
                {
                  "code": "69548-6",
                  "display": "Genomic variant assessment",
                  "system": "http://loinc.org"
                }
              ]
            },
            "valueCodeableConcept": {
              "coding": [
                {
                  "code": "LA9633-4",
                  "display": "Present",
                  "system": "http://loinc.org"
                }
              ]
            }
          },
          {
            "code": {
              "coding": [
                {
                  "code": "53034-5",
                  "display": "Allelic state",
                  "system": "http://loinc.org"
                }
              ]
            },
            "valueCodeableConcept": {
              "coding": [
                {
                  "code": "LA6706-1",
                  "display": "Heterozygous",
                  "system": "http://loinc.org"
                }
              ]
            }
          }
        ],
        "effectiveDateTime": "2016-08-09T16:50:00+00:00",
        "identifier": [
          {
            "assigner": {
              "identifier": {
                "system": "https://fhir.nhs.uk/Id/ods-organization-code",
                "value": "699X0"
              }
            },
            "system": "https://fhir.nwgenomics.nhs.uk/iGene/ReportIdentifier",
            "type": {
              "coding": [
                {
                  "code": "FILL",
                  "system": "http://terminology.hl7.org/CodeSystem/v2-0203"
                }
              ]
            },
            "value": "Gen825750-LRI4"
          }
        ],
        "meta": {
          "profile": [
            "https://fhir.nwgenomics.nhs.uk/StructureDefinition/Variant"
          ]
        },
        "method": {
          "coding": [
            {
              "code": "LA26400-4",
              "display": "SNP array",
              "system": "http://loinc.org"
            }
          ]
        },
        "performer": [
          {
            "identifier": {
              "system": "https://fhir.nhs.uk/Id/ods-organization-code",
              "value": "699X0"
            },
            "type": "Organization"
          }
        ],
        "status": "final",
        "subject": {
          "identifier": {
            "system": "https://fhir.nhs.uk/Id/nhs-number",
            "type": {
              "coding": [
                {
                  "code": "NH",
                  "system": "http://terminology.hl7.org/CodeSystem/v2-0203"
                }
              ]
            },
            "value": "9737383346"
          },
          "reference": "urn:uuid:43b5b4f2-77ad-46c5-8b35-0fb321d4a132"
        },
        "valueCodeableConcept": {
          "coding": [
            {
              "code": "9154",
              "display": "PNKP",
              "system": "http://www.genenames.org"
            }
          ]
        }
      }
    },
    {
      "fullUrl": "urn:uuid:92d365a9-470d-460d-927c-563797271b42",
      "resource": {
        "resourceType": "Observation",
        "category": [
          {
            "coding": [
              {
                "code": "laboratory",
                "system": "http://terminology.hl7.org/CodeSystem/observation-category"
              }
            ]
          },
          {
            "coding": [
              {
                "code": "GE",
                "system": "http://terminology.hl7.org/CodeSystem/v2-0074"
              }
            ]
          }
        ],
        "code": {
          "coding": [
            {
              "code": "412731001",
              "display": "Genetic finding detected",
              "system": "http://snomed.info/sct"
            },
            {
              "code": "diagnostic-implication",
              "system": "http://hl7.org/fhir/uv/genomics-reporting/CodeSystem/tbd-codes-cs"
            },
            {
              "code": "CN218420",
              "display": "Developmental delay AND/OR other significant developmental or morphological phenotypes",
              "system": "MedGen-Dis"
            }
          ]
        },
        "component": [
          {
            "code": {
              "coding": [
                {
                  "code": "81259-4",
                  "display": "Probable associated phenotype",
                  "system": "http://loinc.org"
                }
              ]
            },
            "valueCodeableConcept": {
              "coding": [
                {
                  "code": "CN218420",
                  "display": "Developmental delay AND/OR other significant developmental or morphological phenotypes",
                  "system": "MedGen-Dis"
                }
              ]
            }
          },
          {
            "code": {
              "coding": [
                {
                  "code": "53037-8",
                  "display": "Genetic variation clinical significance",
                  "system": "http://loinc.org"
                }
              ]
            },
            "valueCodeableConcept": {
              "coding": [
                {
                  "code": "LA6671-7",
                  "display": "Uncertain Significance",
                  "system": "http://loinc.org"
                }
              ]
            }
          }
        ],
        "derivedFrom": [
          {
            "reference": "urn:uuid:ea9fe487-9092-4904-8340-5f4cf71b517b",
            "type": "Observation"
          }
        ],
        "effectiveDateTime": "2016-08-09T16:50:00+00:00",
        "identifier": [
          {
            "assigner": {
              "identifier": {
                "system": "https://fhir.nhs.uk/Id/ods-organization-code",
                "value": "699X0"
              }
            },
            "system": "https://fhir.nwgenomics.nhs.uk/iGene/ReportIdentifier",
            "type": {
              "coding": [
                {
                  "code": "FILL",
                  "system": "http://terminology.hl7.org/CodeSystem/v2-0203"
                }
              ]
            },
            "value": "Gen825750-LRI4"
          }
        ],
        "meta": {
          "profile": [
            "https://fhir.nwgenomics.nhs.uk/StructureDefinition/DiagnosticImplication"
          ]
        },
        "performer": [
          {
            "identifier": {
              "system": "https://fhir.nhs.uk/Id/ods-organization-code",
              "value": "699X0"
            },
            "type": "Organization"
          }
        ],
        "status": "final",
        "subject": {
          "identifier": {
            "system": "https://fhir.nhs.uk/Id/nhs-number",
            "type": {
              "coding": [
                {
                  "code": "NH",
                  "system": "http://terminology.hl7.org/CodeSystem/v2-0203"
                }
              ]
            },
            "value": "9737383346"
          },
          "reference": "urn:uuid:43b5b4f2-77ad-46c5-8b35-0fb321d4a132"
        }
      }
    },
    {
      "fullUrl": "urn:uuid:1a176f45-3010-4b7b-8239-4ff0c2c1e9ab",
      "resource": {
        "resourceType": "Observation",
        "category": [
          {
            "coding": [
              {
                "code": "laboratory",
                "system": "http://terminology.hl7.org/CodeSystem/observation-category"
              }
            ]
          },
          {
            "coding": [
              {
                "code": "GE",
                "system": "http://terminology.hl7.org/CodeSystem/v2-0074"
              }
            ]
          },
          {
            "coding": [
              {
                "code": "LA26801-3",
                "display": "Simple Variant",
                "system": "http://loinc.org"
              }
            ]
          }
        ],
        "code": {
          "coding": [
            {
              "code": "69548-6",
              "display": "Genetic variant assessment",
              "system": "http://loinc.org"
            }
          ]
        },
        "component": [
          {
            "code": {
              "coding": [
                {
                  "code": "81252-9",
                  "display": "Discrete genetic variant",
                  "system": "http://loinc.org"
                }
              ]
            },
            "valueCodeableConcept": {
              "coding": [
                {
                  "code": "130039",
                  "display": "NM_145239.2(PRRT2):c.67G>A(p.Glu23Lys)",
                  "system": "http://www.ncbi.nlm.nih.gov/clinvar"
                }
              ]
            }
          },
          {
            "code": {
              "coding": [
                {
                  "code": "48018-6",
                  "display": "Gene studied",
                  "system": "http://loinc.org"
                }
              ]
            },
            "valueCodeableConcept": {
              "coding": [
                {
                  "code": "30500",
                  "display": "PRRT2",
                  "system": "http://www.genenames.org"
                }
              ]
            }
          },
          {
            "code": {
              "coding": [
                {
                  "code": "51958-7",
                  "display": "Transcript RefSeq ID",
                  "system": "http://loinc.org"
                }
              ]
            },
            "valueCodeableConcept": {
              "coding": [
                {
                  "code": "NM_145239.2",
                  "display": "NM_145239.2",
                  "system": "http://www.ncbi.nlm.nih.gov/refseq"
                }
              ]
            }
          },
          {
            "code": {
              "coding": [
                {
                  "code": "41103-3",
                  "display": "Transcript DNA Change (cHGVS)",
                  "system": "http://loinc.org"
                }
              ]
            },
            "valueCodeableConcept": {
              "coding": [
                {
                  "code": "c.67G>A",
                  "display": "c.67G>A",
                  "system": "http://varnomen.hgvs.org"
                }
              ]
            }
          },
          {
            "code": {
              "coding": [
                {
                  "code": "48005-3",
                  "display": "Amino acid change p.HGVS",
                  "system": "http://loinc.org"
                }
              ]
            },
            "valueCodeableConcept": {
              "coding": [
                {
                  "code": "p.Glu23Lys",
                  "display": "p.Glu23Lys",
                  "system": "http://varnomen.hgvs.org"
                }
              ]
            }
          },
          {
            "code": {
              "coding": [
                {
                  "code": "48019-4",
                  "display": "DNA change type",
                  "system": "http://loinc.org"
                }
              ]
            },
            "valueCodeableConcept": {
              "coding": [
                {
                  "code": "LA6690-7",
                  "display": "Substitution",
                  "system": "http://loinc.org"
                }
              ]
            }
          },
          {
            "code": {
              "coding": [
                {
                  "code": "81290-9",
                  "display": "Genomic DNA change (gHGVS)",
                  "system": "http://loinc.org"
                }
              ]
            },
            "valueCodeableConcept": {
              "coding": [
                {
                  "code": "NC_000016.9",
                  "display": "NC_000016.9",
                  "system": "http://www.ncbi.nlm.nih.gov/refseq"
                }
              ]
            }
          },
          {
            "code": {
              "coding": [
                {
                  "code": "69547-8",
                  "display": "Genomic ref allele",
                  "system": "http://loinc.org"
                }
              ]
            },
            "valueString": "G"
          },
          {
            "code": {
              "coding": [
                {
                  "code": "81254-5",
                  "display": "Genomic allele location",
                  "system": "http://loinc.org"
                }
              ]
            },
            "valueRange": {
              "high": {
                "system": "http://unitsofmeasure.org",
                "value": 29824442
              },
              "low": {
                "system": "http://unitsofmeasure.org",
                "value": 29824442
              }
            }
          },
          {
            "code": {
              "coding": [
                {
                  "code": "69551-0",
                  "display": "Genomic alt allele",
                  "system": "http://loinc.org"
                }
              ]
            },
            "valueString": "A"
          },
          {
            "code": {
              "coding": [
                {
                  "code": "81255-2",
                  "display": "dbSNP ID",
                  "system": "http://loinc.org"
                }
              ]
            },
            "valueCodeableConcept": {
              "coding": [
                {
                  "code": "rs140383655",
                  "display": "rs140383655",
                  "system": "http://www.ncbi.nlm.nih.gov/projects/SNP"
                }
              ]
            }
          },
          {
            "code": {
              "coding": [
                {
                  "code": "48001-2",
                  "display": "Cytogenetic (chromosome) location",
                  "system": "http://loinc.org"
                }
              ]
            },
            "valueCodeableConcept": {
              "coding": [
                {
                  "code": "16p11.2",
                  "display": "16p11.2",
                  "system": "Chrom-Loc"
                }
              ]
            }
          },
          {
            "code": {
              "coding": [
                {
                  "code": "48002-0",
                  "display": "Genomic source class",
                  "system": "http://loinc.org"
                }
              ]
            },
            "valueCodeableConcept": {
              "coding": [
                {
                  "code": "LA6683-2",
                  "display": "Germline",
                  "system": "http://loinc.org"
                }
              ]
            }
          },
          {
            "code": {
              "coding": [
                {
                  "code": "53037-8",
                  "display": "Genetic variation clinical significance",
                  "system": "http://loinc.org"
                }
              ]
            },
            "valueCodeableConcept": {
              "coding": [
                {
                  "code": "LA6671-7",
                  "display": "Uncertain Significance",
                  "system": "http://loinc.org"
                }
              ]
            }
          },
          {
            "code": {
              "coding": [
                {
                  "code": "69548-6",
                  "display": "Genomic variant assessment",
                  "system": "http://loinc.org"
                }
              ]
            },
            "valueCodeableConcept": {
              "coding": [
                {
                  "code": "LA9633-4",
                  "display": "Present",
                  "system": "http://loinc.org"
                }
              ]
            }
          },
          {
            "code": {
              "coding": [
                {
                  "code": "53034-5",
                  "display": "Allelic state",
                  "system": "http://loinc.org"
                }
              ]
            },
            "valueCodeableConcept": {
              "coding": [
                {
                  "code": "LA6706-1",
                  "display": "Heterozygous",
                  "system": "http://loinc.org"
                }
              ]
            }
          }
        ],
        "effectiveDateTime": "2016-08-09T16:50:00+00:00",
        "identifier": [
          {
            "assigner": {
              "identifier": {
                "system": "https://fhir.nhs.uk/Id/ods-organization-code",
                "value": "699X0"
              }
            },
            "system": "https://fhir.nwgenomics.nhs.uk/iGene/ReportIdentifier",
            "type": {
              "coding": [
                {
                  "code": "FILL",
                  "system": "http://terminology.hl7.org/CodeSystem/v2-0203"
                }
              ]
            },
            "value": "Gen825750-LRI4"
          }
        ],
        "meta": {
          "profile": [
            "https://fhir.nwgenomics.nhs.uk/StructureDefinition/Variant"
          ]
        },
        "method": {
          "coding": [
            {
              "code": "LA26400-4",
              "display": "SNP array",
              "system": "http://loinc.org"
            }
          ]
        },
        "performer": [
          {
            "identifier": {
              "system": "https://fhir.nhs.uk/Id/ods-organization-code",
              "value": "699X0"
            },
            "type": "Organization"
          }
        ],
        "status": "final",
        "subject": {
          "identifier": {
            "system": "https://fhir.nhs.uk/Id/nhs-number",
            "type": {
              "coding": [
                {
                  "code": "NH",
                  "system": "http://terminology.hl7.org/CodeSystem/v2-0203"
                }
              ]
            },
            "value": "9737383346"
          },
          "reference": "urn:uuid:43b5b4f2-77ad-46c5-8b35-0fb321d4a132"
        },
        "valueCodeableConcept": {
          "coding": [
            {
              "code": "30500",
              "display": "PRRT2",
              "system": "http://www.genenames.org"
            }
          ]
        }
      }
    },
    {
      "fullUrl": "urn:uuid:2a4097db-c4d3-4f59-83f2-ecab7928f603",
      "resource": {
        "resourceType": "Observation",
        "category": [
          {
            "coding": [
              {
                "code": "laboratory",
                "system": "http://terminology.hl7.org/CodeSystem/observation-category"
              }
            ]
          },
          {
            "coding": [
              {
                "code": "GE",
                "system": "http://terminology.hl7.org/CodeSystem/v2-0074"
              }
            ]
          }
        ],
        "code": {
          "coding": [
            {
              "code": "412731001",
              "display": "Genetic finding detected",
              "system": "http://snomed.info/sct"
            },
            {
              "code": "diagnostic-implication",
              "system": "http://hl7.org/fhir/uv/genomics-reporting/CodeSystem/tbd-codes-cs"
            },
            {
              "code": "C1510586",
              "display": "Autism spectrum disorders",
              "system": "MedGen-Dis"
            }
          ]
        },
        "component": [
          {
            "code": {
              "coding": [
                {
                  "code": "81259-4",
                  "display": "Probable associated phenotype",
                  "system": "http://loinc.org"
                }
              ]
            },
            "valueCodeableConcept": {
              "coding": [
                {
                  "code": "C1510586",
                  "display": "Autism spectrum disorders",
                  "system": "MedGen-Dis"
                }
              ]
            }
          },
          {
            "code": {
              "coding": [
                {
                  "code": "53037-8",
                  "display": "Genetic variation clinical significance",
                  "system": "http://loinc.org"
                }
              ]
            },
            "valueCodeableConcept": {
              "coding": [
                {
                  "code": "LA6674-1",
                  "display": "Likely Benign",
                  "system": "http://loinc.org"
                }
              ]
            }
          },
          {
            "code": {
              "coding": [
                {
                  "code": "53037-8",
                  "display": "Genetic variation clinical significance",
                  "system": "http://loinc.org"
                }
              ]
            },
            "valueCodeableConcept": {
              "coding": [
                {
                  "code": "LA6671-7",
                  "display": "Uncertain Significance",
                  "system": "http://loinc.org"
                }
              ]
            }
          }
        ],
        "derivedFrom": [
          {
            "reference": "urn:uuid:1a176f45-3010-4b7b-8239-4ff0c2c1e9ab",
            "type": "Observation"
          }
        ],
        "effectiveDateTime": "2016-08-09T16:50:00+00:00",
        "identifier": [
          {
            "assigner": {
              "identifier": {
                "system": "https://fhir.nhs.uk/Id/ods-organization-code",
                "value": "699X0"
              }
            },
            "system": "https://fhir.nwgenomics.nhs.uk/iGene/ReportIdentifier",
            "type": {
              "coding": [
                {
                  "code": "FILL",
                  "system": "http://terminology.hl7.org/CodeSystem/v2-0203"
                }
              ]
            },
            "value": "Gen825750-LRI4"
          }
        ],
        "meta": {
          "profile": [
            "https://fhir.nwgenomics.nhs.uk/StructureDefinition/DiagnosticImplication"
          ]
        },
        "performer": [
          {
            "identifier": {
              "system": "https://fhir.nhs.uk/Id/ods-organization-code",
              "value": "699X0"
            },
            "type": "Organization"
          }
        ],
        "status": "final",
        "subject": {
          "identifier": {
            "system": "https://fhir.nhs.uk/Id/nhs-number",
            "type": {
              "coding": [
                {
                  "code": "NH",
                  "system": "http://terminology.hl7.org/CodeSystem/v2-0203"
                }
              ]
            },
            "value": "9737383346"
          },
          "reference": "urn:uuid:43b5b4f2-77ad-46c5-8b35-0fb321d4a132"
        }
      }
    },
    {
      "fullUrl": "urn:uuid:f7143885-4bc3-43b8-baa3-8392eb191e59",
      "resource": {
        "resourceType": "Observation",
        "category": [
          {
            "coding": [
              {
                "code": "laboratory",
                "system": "http://terminology.hl7.org/CodeSystem/observation-category"
              }
            ]
          },
          {
            "coding": [
              {
                "code": "GE",
                "system": "http://terminology.hl7.org/CodeSystem/v2-0074"
              }
            ]
          },
          {
            "coding": [
              {
                "code": "LA26801-3",
                "display": "Simple Variant",
                "system": "http://loinc.org"
              }
            ]
          }
        ],
        "code": {
          "coding": [
            {
              "code": "69548-6",
              "display": "Genetic variant assessment",
              "system": "http://loinc.org"
            }
          ]
        },
        "component": [
          {
            "code": {
              "coding": [
                {
                  "code": "81252-9",
                  "display": "Discrete genetic variant",
                  "system": "http://loinc.org"
                }
              ]
            },
            "valueCodeableConcept": {
              "coding": [
                {
                  "code": "205776",
                  "display": "NM_001193466.1(KANSL1):c.727C>A(p.Gln243Lys)",
                  "system": "http://www.ncbi.nlm.nih.gov/clinvar"
                }
              ]
            }
          },
          {
            "code": {
              "coding": [
                {
                  "code": "48018-6",
                  "display": "Gene studied",
                  "system": "http://loinc.org"
                }
              ]
            },
            "valueCodeableConcept": {
              "coding": [
                {
                  "code": "24565",
                  "display": "KANSL1",
                  "system": "http://www.genenames.org"
                }
              ]
            }
          },
          {
            "code": {
              "coding": [
                {
                  "code": "51958-7",
                  "display": "Transcript RefSeq ID",
                  "system": "http://loinc.org"
                }
              ]
            },
            "valueCodeableConcept": {
              "coding": [
                {
                  "code": "NM_001193466.1",
                  "display": "NM_001193466.1",
                  "system": "http://www.ncbi.nlm.nih.gov/refseq"
                }
              ]
            }
          },
          {
            "code": {
              "coding": [
                {
                  "code": "41103-3",
                  "display": "Transcript DNA Change(cHGVS)",
                  "system": "http://loinc.org"
                }
              ]
            },
            "valueCodeableConcept": {
              "coding": [
                {
                  "code": "c.727C>A",
                  "display": "c.727C>A",
                  "system": "http://varnomen.hgvs.org"
                }
              ]
            }
          },
          {
            "code": {
              "coding": [
                {
                  "code": "48005-3",
                  "display": "Amino acid change p.HGVS",
                  "system": "http://loinc.org"
                }
              ]
            },
            "valueCodeableConcept": {
              "coding": [
                {
                  "code": "p.Gln243Lys",
                  "display": "p.Gln243Lys",
                  "system": "http://varnomen.hgvs.org"
                }
              ]
            }
          },
          {
            "code": {
              "coding": [
                {
                  "code": "48019-4",
                  "display": "DNA change type",
                  "system": "http://loinc.org"
                }
              ]
            },
            "valueCodeableConcept": {
              "coding": [
                {
                  "code": "LA6690-7",
                  "display": "Substitution",
                  "system": "http://loinc.org"
                }
              ]
            }
          },
          {
            "code": {
              "coding": [
                {
                  "code": "48006-1",
                  "display": "Amino acid change type",
                  "system": "http://loinc.org"
                }
              ]
            },
            "valueCodeableConcept": {
              "coding": [
                {
                  "code": "LA6698-0",
                  "display": "Missense",
                  "system": "http://loinc.org"
                }
              ]
            }
          },
          {
            "code": {
              "coding": [
                {
                  "code": "81290-9",
                  "display": "Genomic DNA change (gHGVS)",
                  "system": "http://loinc.org"
                }
              ]
            },
            "valueCodeableConcept": {
              "coding": [
                {
                  "code": "NC_000017.10",
                  "display": "NC_000017.10",
                  "system": "http://www.ncbi.nlm.nih.gov/refseq"
                }
              ]
            }
          },
          {
            "code": {
              "coding": [
                {
                  "code": "69547-8",
                  "display": "Genomic ref allele",
                  "system": "http://loinc.org"
                }
              ]
            },
            "valueString": "G"
          },
          {
            "code": {
              "coding": [
                {
                  "code": "81254-5",
                  "display": "Genomic allele location",
                  "system": "http://loinc.org"
                }
              ]
            },
            "valueRange": {
              "high": {
                "system": "http://unitsofmeasure.org",
                "value": 44248783
              },
              "low": {
                "system": "http://unitsofmeasure.org",
                "value": 44248783
              }
            }
          },
          {
            "code": {
              "coding": [
                {
                  "code": "69551-0",
                  "display": "Genomic alt allele",
                  "system": "http://loinc.org"
                }
              ]
            },
            "valueString": "T"
          },
          {
            "code": {
              "coding": [
                {
                  "code": "81255-2",
                  "display": "dbSNP ID",
                  "system": "http://loinc.org"
                }
              ]
            },
            "valueCodeableConcept": {
              "coding": [
                {
                  "code": "rs142096969",
                  "display": "rs142096969",
                  "system": "http://www.ncbi.nlm.nih.gov/projects/SNP"
                }
              ]
            }
          },
          {
            "code": {
              "coding": [
                {
                  "code": "48001-2",
                  "display": "Cytogenetic (chromosome) location",
                  "system": "http://loinc.org"
                }
              ]
            },
            "valueCodeableConcept": {
              "coding": [
                {
                  "code": "17q21.31",
                  "display": "17q21.31",
                  "system": "Chrom-Loc"
                }
              ]
            }
          },
          {
            "code": {
              "coding": [
                {
                  "code": "48002-0",
                  "display": "Genomic source class",
                  "system": "http://loinc.org"
                }
              ]
            },
            "valueCodeableConcept": {
              "coding": [
                {
                  "code": "LA6683-2",
                  "display": "Germline",
                  "system": "http://loinc.org"
                }
              ]
            }
          },
          {
            "code": {
              "coding": [
                {
                  "code": "53037-8",
                  "display": "Genetic variation clinical significance",
                  "system": "http://loinc.org"
                }
              ]
            },
            "valueCodeableConcept": {
              "coding": [
                {
                  "code": "LA6674-1",
                  "display": "Likely Benign",
                  "system": "http://loinc.org"
                }
              ]
            }
          },
          {
            "code": {
              "coding": [
                {
                  "code": "69548-6",
                  "display": "Genomic variant assessment",
                  "system": "http://loinc.org"
                }
              ]
            },
            "valueCodeableConcept": {
              "coding": [
                {
                  "code": "LA9633-4",
                  "display": "Present",
                  "system": "http://loinc.org"
                }
              ]
            }
          },
          {
            "code": {
              "coding": [
                {
                  "code": "53034-5",
                  "display": "Allelic state",
                  "system": "http://loinc.org"
                }
              ]
            },
            "valueCodeableConcept": {
              "coding": [
                {
                  "code": "LA6706-1",
                  "display": "Heterozygous",
                  "system": "http://loinc.org"
                }
              ]
            }
          }
        ],
        "effectiveDateTime": "2016-08-09T16:50:00+00:00",
        "identifier": [
          {
            "assigner": {
              "identifier": {
                "system": "https://fhir.nhs.uk/Id/ods-organization-code",
                "value": "699X0"
              }
            },
            "system": "https://fhir.nwgenomics.nhs.uk/iGene/ReportIdentifier",
            "type": {
              "coding": [
                {
                  "code": "FILL",
                  "system": "http://terminology.hl7.org/CodeSystem/v2-0203"
                }
              ]
            },
            "value": "Gen825750-LRI4"
          }
        ],
        "meta": {
          "profile": [
            "https://fhir.nwgenomics.nhs.uk/StructureDefinition/Variant"
          ]
        },
        "method": {
          "coding": [
            {
              "code": "LA26400-4",
              "display": "SNP array",
              "system": "http://loinc.org"
            }
          ]
        },
        "performer": [
          {
            "identifier": {
              "system": "https://fhir.nhs.uk/Id/ods-organization-code",
              "value": "699X0"
            },
            "type": "Organization"
          }
        ],
        "status": "final",
        "subject": {
          "identifier": {
            "system": "https://fhir.nhs.uk/Id/nhs-number",
            "type": {
              "coding": [
                {
                  "code": "NH",
                  "system": "http://terminology.hl7.org/CodeSystem/v2-0203"
                }
              ]
            },
            "value": "9737383346"
          },
          "reference": "urn:uuid:43b5b4f2-77ad-46c5-8b35-0fb321d4a132"
        },
        "valueCodeableConcept": {
          "coding": [
            {
              "code": "24565",
              "display": "KANSL1",
              "system": "http://www.genenames.org"
            }
          ]
        }
      }
    },
    {
      "fullUrl": "urn:uuid:ca3432f5-62f8-4d48-af76-2187ccea67e1",
      "resource": {
        "resourceType": "Observation",
        "category": [
          {
            "coding": [
              {
                "code": "laboratory",
                "system": "http://terminology.hl7.org/CodeSystem/observation-category"
              }
            ]
          },
          {
            "coding": [
              {
                "code": "GE",
                "system": "http://terminology.hl7.org/CodeSystem/v2-0074"
              }
            ]
          },
          {
            "coding": [
              {
                "code": "LA26801-3",
                "display": "Simple Variant",
                "system": "http://loinc.org"
              }
            ]
          }
        ],
        "code": {
          "coding": [
            {
              "code": "69548-6",
              "display": "Genetic variant assessment",
              "system": "http://loinc.org"
            }
          ]
        },
        "component": [
          {
            "code": {
              "coding": [
                {
                  "code": "81252-9",
                  "display": "Discrete genetic variant",
                  "system": "http://loinc.org"
                }
              ]
            },
            "valueCodeableConcept": {
              "coding": [
                {
                  "code": "159792",
                  "display": "NM_007254.3(PNKP):c.188C>T(p.Ala63Val)",
                  "system": "http://www.ncbi.nlm.nih.gov/clinvar"
                }
              ]
            }
          },
          {
            "code": {
              "coding": [
                {
                  "code": "48018-6",
                  "display": "Gene studied",
                  "system": "http://loinc.org"
                }
              ]
            },
            "valueCodeableConcept": {
              "coding": [
                {
                  "code": "9154",
                  "display": "PNKP",
                  "system": "http://www.genenames.org"
                }
              ]
            }
          },
          {
            "code": {
              "coding": [
                {
                  "code": "51958-7",
                  "display": "Transcript RefSeq ID",
                  "system": "http://loinc.org"
                }
              ]
            },
            "valueCodeableConcept": {
              "coding": [
                {
                  "code": "NM_007254.3",
                  "display": "NM_007254.3",
                  "system": "http://www.ncbi.nlm.nih.gov/refseq"
                }
              ]
            }
          },
          {
            "code": {
              "coding": [
                {
                  "code": "41103-3",
                  "display": "Transcript DNA Change (cHGVS)",
                  "system": "http://loinc.org"
                }
              ]
            },
            "valueCodeableConcept": {
              "coding": [
                {
                  "code": "c.188C>T",
                  "display": "c.188C>T",
                  "system": "http://varnomen.hgvs.org"
                }
              ]
            }
          },
          {
            "code": {
              "coding": [
                {
                  "code": "48005-3",
                  "display": "Amino acid change p.HGVS",
                  "system": "http://loinc.org"
                }
              ]
            },
            "valueCodeableConcept": {
              "coding": [
                {
                  "code": "p.Ala63Val",
                  "display": "p.Ala63Val",
                  "system": "http://varnomen.hgvs.org"
                }
              ]
            }
          },
          {
            "code": {
              "coding": [
                {
                  "code": "48019-4",
                  "display": "DNA change type",
                  "system": "http://loinc.org"
                }
              ]
            },
            "valueCodeableConcept": {
              "coding": [
                {
                  "code": "LA6690-7",
                  "display": "Substitution",
                  "system": "http://loinc.org"
                }
              ]
            }
          },
          {
            "code": {
              "coding": [
                {
                  "code": "48006-1",
                  "display": "Amino acid change type",
                  "system": "http://loinc.org"
                }
              ]
            },
            "valueCodeableConcept": {
              "coding": [
                {
                  "code": "LA6698-0",
                  "display": "Missense",
                  "system": "http://loinc.org"
                }
              ]
            }
          },
          {
            "code": {
              "coding": [
                {
                  "code": "81290-9",
                  "display": "Genomic DNA change (gHGVS)",
                  "system": "http://loinc.org"
                }
              ]
            },
            "valueCodeableConcept": {
              "coding": [
                {
                  "code": "NC_000019.9",
                  "display": "NC_000019.9",
                  "system": "http://www.ncbi.nlm.nih.gov/refseq"
                }
              ]
            }
          },
          {
            "code": {
              "coding": [
                {
                  "code": "69547-8",
                  "display": "Genomic ref allele",
                  "system": "http://loinc.org"
                }
              ]
            },
            "valueString": "G"
          },
          {
            "code": {
              "coding": [
                {
                  "code": "81254-5",
                  "display": "Genomic allele location",
                  "system": "http://loinc.org"
                }
              ]
            },
            "valueRange": {
              "high": {
                "system": "http://unitsofmeasure.org",
                "value": 50369666
              },
              "low": {
                "system": "http://unitsofmeasure.org",
                "value": 50369666
              }
            }
          },
          {
            "code": {
              "coding": [
                {
                  "code": "69551-0",
                  "display": "Genomic alt allele",
                  "system": "http://loinc.org"
                }
              ]
            },
            "valueString": "A"
          },
          {
            "code": {
              "coding": [
                {
                  "code": "81255-2",
                  "display": "dbSNP ID",
                  "system": "http://loinc.org"
                }
              ]
            },
            "valueCodeableConcept": {
              "coding": [
                {
                  "code": "rs3739173",
                  "display": "rs3739173",
                  "system": "http://www.ncbi.nlm.nih.gov/projects/SNP"
                }
              ]
            }
          },
          {
            "code": {
              "coding": [
                {
                  "code": "48001-2",
                  "display": "Cytogenetic (chromosome) location",
                  "system": "http://loinc.org"
                }
              ]
            },
            "valueCodeableConcept": {
              "coding": [
                {
                  "code": "19q13.33",
                  "display": "19q13.33",
                  "system": "Chrom-Loc"
                }
              ]
            }
          },
          {
            "code": {
              "coding": [
                {
                  "code": "48002-0",
                  "display": "Genomic source class",
                  "system": "http://loinc.org"
                }
              ]
            },
            "valueCodeableConcept": {
              "coding": [
                {
                  "code": "LA6683-2",
                  "display": "Germline",
                  "system": "http://loinc.org"
                }
              ]
            }
          },
          {
            "code": {
              "coding": [
                {
                  "code": "53037-8",
                  "display": "Genetic variation clinical significance",
                  "system": "http://loinc.org"
                }
              ]
            },
            "valueCodeableConcept": {
              "coding": [
                {
                  "code": "LA6671-7",
                  "display": "Uncertain Significance",
                  "system": "http://loinc.org"
                }
              ]
            }
          },
          {
            "code": {
              "coding": [
                {
                  "code": "69548-6",
                  "display": "Genomic variant assessment",
                  "system": "http://loinc.org"
                }
              ]
            },
            "valueCodeableConcept": {
              "coding": [
                {
                  "code": "LA9633-4",
                  "display": "Present",
                  "system": "http://loinc.org"
                }
              ]
            }
          },
          {
            "code": {
              "coding": [
                {
                  "code": "53034-5",
                  "display": "Allelic state",
                  "system": "http://loinc.org"
                }
              ]
            },
            "valueCodeableConcept": {
              "coding": [
                {
                  "code": "LA6706-1",
                  "display": "Heterozygous",
                  "system": "http://loinc.org"
                }
              ]
            }
          }
        ],
        "effectiveDateTime": "2016-08-09T16:50:00+00:00",
        "identifier": [
          {
            "assigner": {
              "identifier": {
                "system": "https://fhir.nhs.uk/Id/ods-organization-code",
                "value": "699X0"
              }
            },
            "system": "https://fhir.nwgenomics.nhs.uk/iGene/ReportIdentifier",
            "type": {
              "coding": [
                {
                  "code": "FILL",
                  "system": "http://terminology.hl7.org/CodeSystem/v2-0203"
                }
              ]
            },
            "value": "Gen825750-LRI4"
          }
        ],
        "meta": {
          "profile": [
            "https://fhir.nwgenomics.nhs.uk/StructureDefinition/Variant"
          ]
        },
        "method": {
          "coding": [
            {
              "code": "LA26400-4",
              "display": "SNP array",
              "system": "http://loinc.org"
            }
          ]
        },
        "performer": [
          {
            "identifier": {
              "system": "https://fhir.nhs.uk/Id/ods-organization-code",
              "value": "699X0"
            },
            "type": "Organization"
          }
        ],
        "status": "final",
        "subject": {
          "identifier": {
            "system": "https://fhir.nhs.uk/Id/nhs-number",
            "type": {
              "coding": [
                {
                  "code": "NH",
                  "system": "http://terminology.hl7.org/CodeSystem/v2-0203"
                }
              ]
            },
            "value": "9737383346"
          },
          "reference": "urn:uuid:43b5b4f2-77ad-46c5-8b35-0fb321d4a132"
        },
        "valueCodeableConcept": {
          "coding": [
            {
              "code": "9154",
              "display": "PNKP",
              "system": "http://www.genenames.org"
            }
          ]
        }
      }
    },
    {
      "fullUrl": "urn:uuid:f9ab549f-8a59-4a50-ae44-e7f9956bbdcf",
      "resource": {
        "resourceType": "Observation",
        "category": [
          {
            "coding": [
              {
                "code": "laboratory",
                "system": "http://terminology.hl7.org/CodeSystem/observation-category"
              }
            ]
          },
          {
            "coding": [
              {
                "code": "GE",
                "system": "http://terminology.hl7.org/CodeSystem/v2-0074"
              }
            ]
          }
        ],
        "code": {
          "coding": [
            {
              "code": "412731001",
              "display": "Genetic finding detected",
              "system": "http://snomed.info/sct"
            },
            {
              "code": "diagnostic-implication",
              "system": "http://hl7.org/fhir/uv/genomics-reporting/CodeSystem/tbd-codes-cs"
            },
            {
              "code": "C3150667",
              "display": "Early infantile epileptic encephalopathy 10",
              "system": "MedGen-Dis"
            }
          ]
        },
        "component": [
          {
            "code": {
              "coding": [
                {
                  "code": "81259-4",
                  "display": "Probable associated phenotype",
                  "system": "http://loinc.org"
                }
              ]
            },
            "valueCodeableConcept": {
              "coding": [
                {
                  "code": "C3150667",
                  "display": "Early infantile epileptic encephalopathy 10",
                  "system": "MedGen-Dis"
                }
              ]
            }
          }
        ],
        "derivedFrom": [
          {
            "reference": "urn:uuid:ca3432f5-62f8-4d48-af76-2187ccea67e1",
            "type": "Observation"
          }
        ],
        "effectiveDateTime": "2016-08-09T16:50:00+00:00",
        "identifier": [
          {
            "assigner": {
              "identifier": {
                "system": "https://fhir.nhs.uk/Id/ods-organization-code",
                "value": "699X0"
              }
            },
            "system": "https://fhir.nwgenomics.nhs.uk/iGene/ReportIdentifier",
            "type": {
              "coding": [
                {
                  "code": "FILL",
                  "system": "http://terminology.hl7.org/CodeSystem/v2-0203"
                }
              ]
            },
            "value": "Gen825750-LRI4"
          }
        ],
        "meta": {
          "profile": [
            "https://fhir.nwgenomics.nhs.uk/StructureDefinition/DiagnosticImplication"
          ]
        },
        "performer": [
          {
            "identifier": {
              "system": "https://fhir.nhs.uk/Id/ods-organization-code",
              "value": "699X0"
            },
            "type": "Organization"
          }
        ],
        "status": "final",
        "subject": {
          "identifier": {
            "system": "https://fhir.nhs.uk/Id/nhs-number",
            "type": {
              "coding": [
                {
                  "code": "NH",
                  "system": "http://terminology.hl7.org/CodeSystem/v2-0203"
                }
              ]
            },
            "value": "9737383346"
          },
          "reference": "urn:uuid:43b5b4f2-77ad-46c5-8b35-0fb321d4a132"
        }
      }
    },
    {
      "fullUrl": "urn:uuid:dfd2effe-0e4c-4ab7-a757-0df367b0470f",
      "resource": {
        "resourceType": "ServiceRequest",
        "authoredOn": "2016-08-03",
        "category": [
          {
            "coding": [
              {
                "code": "116148004",
                "system": "http://snomed.info/sct"
              }
            ]
          }
        ],
        "code": {
          "coding": [
            {
              "code": "R59.3",
              "display": "Epilepsy - early onset or syndromic (402)",
              "system": "https://fhir.nhs.uk/CodeSystem/England-GenomicTestDirectory"
            }
          ]
        },
        "identifier": [
          {
            "assigner": {
              "identifier": {
                "system": "https://fhir.nhs.uk/Id/ods-organization-code",
                "value": "RBS"
              }
            },
            "type": {
              "coding": [
                {
                  "code": "PLAC",
                  "system": "http://terminology.hl7.org/CodeSystem/v2-0203"
                }
              ]
            },
            "value": "LRI-5280001671"
          }
        ],
        "intent": "order",
        "requester": {
          "identifier": {
            "system": "https://fhir.nhs.uk/Id/ods-organization-code",
            "value": "RBS"
          },
          "type": "Organization"
        },
        "status": "active",
        "subject": {
          "identifier": {
            "system": "https://fhir.nhs.uk/Id/nhs-number",
            "type": {
              "coding": [
                {
                  "code": "NH",
                  "system": "http://terminology.hl7.org/CodeSystem/v2-0203"
                }
              ]
            },
            "value": "9737383346"
          },
          "reference": "urn:uuid:43b5b4f2-77ad-46c5-8b35-0fb321d4a132"
        }
      }
    },
    {
      "fullUrl": "urn:uuid:76c3b2c9-f2a9-499d-a6b6-2a541358e0cc",
      "resource": {
        "resourceType": "DiagnosticReport",
        "basedOn": [
          {
            "identifier": {
              "assigner": {
                "identifier": {
                  "system": "https://fhir.nhs.uk/Id/ods-organization-code",
                  "value": "RBS"
                }
              },
              "type": {
                "coding": [
                  {
                    "code": "PLAC",
                    "system": "http://terminology.hl7.org/CodeSystem/v2-0203"
                  }
                ]
              },
              "value": "LRI-5280001671"
            },
            "reference": "urn:uuid:dfd2effe-0e4c-4ab7-a757-0df367b0470f",
            "type": "ServiceRequest"
          }
        ],
        "category": [
          {
            "coding": [
              {
                "code": "GE",
                "system": "http://terminology.hl7.org/CodeSystem/v2-0074"
              }
            ]
          }
        ],
        "code": {
          "coding": [
            {
              "code": "R59.3",
              "display": "Epilepsy - early onset or syndromic (402)",
              "system": "https://fhir.nhs.uk/CodeSystem/England-GenomicTestDirectory"
            }
          ]
        },
        "effectiveDateTime": "2016-08-09T16:50:00+00:00",
        "identifier": [
          {
            "assigner": {
              "identifier": {
                "system": "https://fhir.nhs.uk/Id/ods-organization-code",
                "value": "699X0"
              }
            },
            "system": "https://fhir.nwgenomics.nhs.uk/iGene/ReportIdentifier",
            "type": {
              "coding": [
                {
                  "code": "FILL",
                  "system": "http://terminology.hl7.org/CodeSystem/v2-0203"
                }
              ]
            },
            "value": "Gen825750-LRI4"
          }
        ],
        "performer": [
          {
            "display": "NHS North West Genomics",
            "identifier": {
              "system": "https://fhir.nhs.uk/Id/ods-organization-code",
              "value": "699X0"
            },
            "type": "Organization"
          }
        ],
        "presentedForm": [
          {
            "contentType": "application/pdf",
            "url": "urn:uuid:0400cfbb-829f-4f9f-ac2d-c0267afed10b"
          }
        ],
        "result": [
          {
            "display": "Reason for study",
            "reference": "urn:uuid:e91a8fa0-1523-4d7e-8ab1-50f00be79b39",
            "type": "Observation"
          },
          {
            "display": "Genetic disease(s) assessed",
            "reference": "urn:uuid:5b7c5ab4-7f7d-449f-8660-ed9371fe86a1",
            "type": "Observation"
          },
          {
            "display": "Genetic disease(s) assessed",
            "reference": "urn:uuid:0b25a714-0bfc-44a5-90b2-af1a3758d8f8",
            "type": "Observation"
          },
          {
            "display": "Genetic disease(s) assessed",
            "reference": "urn:uuid:f3689fbf-187c-4e2e-92b1-3426adfe9343",
            "type": "Observation"
          },
          {
            "display": "Gene studied",
            "reference": "urn:uuid:497686f3-974d-4b77-9b5f-fb00fc589df0",
            "type": "Observation"
          },
          {
            "display": "Gene studied",
            "reference": "urn:uuid:aeeb5c89-acf5-4d96-9fa8-29918f5cfa27",
            "type": "Observation"
          },
          {
            "display": "Gene studied",
            "reference": "urn:uuid:374acf55-9e35-4ed7-8e63-da5a4398b46b",
            "type": "Observation"
          },
          {
            "display": "Gene studied",
            "reference": "urn:uuid:225d5cb8-21d5-4562-bf4f-ec4cdd264406",
            "type": "Observation"
          },
          {
            "display": "Gene studied",
            "reference": "urn:uuid:fca4c054-ce2d-4fd9-8a55-5d8eef7b200b",
            "type": "Observation"
          },
          {
            "display": "Discrete variation analysis overall interpretation",
            "reference": "urn:uuid:af12b2c0-8bb8-47f0-933d-271e6a4303b8",
            "type": "Observation"
          },
          {
            "display": "Deletion-duplication overall interpretation",
            "reference": "urn:uuid:6dec8922-da47-4fff-9651-e62dd61a18ac",
            "type": "Observation"
          },
          {
            "display": "Description of ranges of DNA sequences examined",
            "reference": "urn:uuid:c38bb69a-3b48-482a-b2ac-9a491702f48e",
            "type": "Observation"
          },
          {
            "display": "Human reference sequence assembly",
            "reference": "urn:uuid:3b8b463f-1f61-4f37-b8b2-ffee23711262",
            "type": "Observation"
          },
          {
            "display": "dbSNP version",
            "reference": "urn:uuid:fa045b27-332d-4a8a-a51a-ff7df6587598",
            "type": "Observation"
          },
          {
            "display": "Genetic variant assessment",
            "reference": "urn:uuid:ea9fe487-9092-4904-8340-5f4cf71b517b",
            "type": "Observation"
          },
          {
            "display": "Genetic finding detected",
            "reference": "urn:uuid:92d365a9-470d-460d-927c-563797271b42",
            "type": "Observation"
          },
          {
            "display": "Genetic variant assessment",
            "reference": "urn:uuid:1a176f45-3010-4b7b-8239-4ff0c2c1e9ab",
            "type": "Observation"
          },
          {
            "display": "Genetic finding detected",
            "reference": "urn:uuid:2a4097db-c4d3-4f59-83f2-ecab7928f603",
            "type": "Observation"
          },
          {
            "display": "Genetic variant assessment",
            "reference": "urn:uuid:f7143885-4bc3-43b8-baa3-8392eb191e59",
            "type": "Observation"
          },
          {
            "display": "Genetic variant assessment",
            "reference": "urn:uuid:ca3432f5-62f8-4d48-af76-2187ccea67e1",
            "type": "Observation"
          },
          {
            "display": "Genetic finding detected",
            "reference": "urn:uuid:f9ab549f-8a59-4a50-ae44-e7f9956bbdcf",
            "type": "Observation"
          }
        ],
        "status": "unknown",
        "subject": {
          "identifier": {
            "system": "https://fhir.nhs.uk/Id/nhs-number",
            "type": {
              "coding": [
                {
                  "code": "NH",
                  "system": "http://terminology.hl7.org/CodeSystem/v2-0203"
                }
              ]
            },
            "value": "9737383346"
          },
          "reference": "urn:uuid:43b5b4f2-77ad-46c5-8b35-0fb321d4a132"
        }
      }
    }
  ],
  "identifier": {
    "value": "ORIE-251014-9"
  },
  "timestamp": "2025-10-14T15:59:42+00:00",
  "type": "message"
}