{
  "resourceType": "Bundle",
  "entry": [
    {
      "fullUrl": "urn:uuid:8284f71e-f507-4c73-bd46-9f7063f19632",
      "resource": {
        "resourceType": "MessageHeader",
        "destination": [
          {
            "endpoint": "https//fhir.mft.nhs.uk/Endpoint/EPIC",
            "receiver": {
              "identifier": {
                "system": "https://fhir.nhs.uk/Id/ods-organization-code",
                "value": "699X0"
              }
            }
          }
        ],
        "eventCoding": {
          "code": "R01",
          "system": "http://terminology.hl7.org/CodeSystem/v2-0003"
        },
        "focus": [
          {
            "reference": "urn:uuid:45bc2a06-ee60-4e9a-9f97-1f4eb8e5cfd7"
          }
        ],
        "sender": {
          "identifier": {
            "system": "https://fhir.nhs.uk/Id/ods-organization-code",
            "value": "699X0"
          }
        },
        "source": {
          "endpoint": "https://fhir.nwgenomics.nhs.uk/Endpoint/IGENE",
          "software": "NW GLH"
        }
      }
    },
    {
      "fullUrl": "urn:uuid:e29fe7fa-9a80-49e5-a620-b3a30c2ea23a",
      "resource": {
        "resourceType": "Patient",
        "address": [
          {
            "postalCode": "L18 9TN"
          }
        ],
        "birthDate": "2019-05-26",
        "gender": "male",
        "identifier": [
          {
            "system": "https://fhir.nhs.uk/Id/nhs-number",
            "type": {
              "coding": [
                {
                  "code": "NH",
                  "system": "http://terminology.hl7.org/CodeSystem/v2-0203"
                }
              ]
            },
            "value": "MR"
          }
        ],
        "name": [
          {
            "family": "CHESTER",
            "given": [
              "Shireen"
            ]
          }
        ]
      }
    },
    {
      "fullUrl": "urn:uuid:f83c9e28-878b-418d-80f3-da7e4976c769",
      "resource": {
        "resourceType": "Observation",
        "code": {
          "coding": [
            {
              "code": "53577-3",
              "display": "Reason for study",
              "system": "http://loinc.org"
            }
          ]
        },
        "identifier": [
          {
            "assigner": {
              "identifier": {
                "system": "https://fhir.nhs.uk/Id/ods-organization-code",
                "value": "699X0"
              }
            },
            "system": "https://fhir.nwgenomics.nhs.uk/iGene/ReportIdentifier",
            "type": {
              "coding": [
                {
                  "code": "FILL",
                  "system": "http://terminology.hl7.org/CodeSystem/v2-0203"
                }
              ]
            },
            "value": "Gen825750"
          }
        ],
        "performer": [
          {
            "identifier": {
              "system": "https://fhir.nhs.uk/Id/ods-organization-code",
              "value": "699X0"
            },
            "type": "Organization"
          }
        ],
        "status": "final",
        "subject": {
          "identifier": {
            "system": "https://fhir.nhs.uk/Id/nhs-number",
            "type": {
              "coding": [
                {
                  "code": "NH",
                  "system": "http://terminology.hl7.org/CodeSystem/v2-0203"
                }
              ]
            },
            "value": "MR"
          },
          "reference": "urn:uuid:e29fe7fa-9a80-49e5-a620-b3a30c2ea23a"
        },
        "valueString": "Patient may have infantile epilepsy."
      }
    },
    {
      "fullUrl": "urn:uuid:8401cb35-ade8-4712-91e3-f1403299e1d8",
      "resource": {
        "resourceType": "Observation",
        "code": {
          "coding": [
            {
              "code": "51967-8",
              "display": "Genetic disease(s) assessed",
              "system": "http://loinc.org"
            }
          ]
        },
        "identifier": [
          {
            "assigner": {
              "identifier": {
                "system": "https://fhir.nhs.uk/Id/ods-organization-code",
                "value": "699X0"
              }
            },
            "system": "https://fhir.nwgenomics.nhs.uk/iGene/ReportIdentifier",
            "type": {
              "coding": [
                {
                  "code": "FILL",
                  "system": "http://terminology.hl7.org/CodeSystem/v2-0203"
                }
              ]
            },
            "value": "Gen825750"
          }
        ],
        "performer": [
          {
            "identifier": {
              "system": "https://fhir.nhs.uk/Id/ods-organization-code",
              "value": "699X0"
            },
            "type": "Organization"
          }
        ],
        "status": "final",
        "subject": {
          "identifier": {
            "system": "https://fhir.nhs.uk/Id/nhs-number",
            "type": {
              "coding": [
                {
                  "code": "NH",
                  "system": "http://terminology.hl7.org/CodeSystem/v2-0203"
                }
              ]
            },
            "value": "MR"
          },
          "reference": "urn:uuid:e29fe7fa-9a80-49e5-a620-b3a30c2ea23a"
        },
        "valueCodeableConcept": {
          "coding": [
            {
              "code": "C0268126",
              "display": "Adenylosuccinate lyase deficiency",
              "system": "MedGen-Dis"
            }
          ]
        }
      }
    },
    {
      "fullUrl": "urn:uuid:2585e545-aae9-4599-9e4b-74153d905e5e",
      "resource": {
        "resourceType": "Observation",
        "code": {
          "coding": [
            {
              "code": "51967-8",
              "display": "Genetic disease(s) assessed",
              "system": "http://loinc.org"
            }
          ]
        },
        "identifier": [
          {
            "assigner": {
              "identifier": {
                "system": "https://fhir.nhs.uk/Id/ods-organization-code",
                "value": "699X0"
              }
            },
            "system": "https://fhir.nwgenomics.nhs.uk/iGene/ReportIdentifier",
            "type": {
              "coding": [
                {
                  "code": "FILL",
                  "system": "http://terminology.hl7.org/CodeSystem/v2-0203"
                }
              ]
            },
            "value": "Gen825750"
          }
        ],
        "performer": [
          {
            "identifier": {
              "system": "https://fhir.nhs.uk/Id/ods-organization-code",
              "value": "699X0"
            },
            "type": "Organization"
          }
        ],
        "status": "final",
        "subject": {
          "identifier": {
            "system": "https://fhir.nhs.uk/Id/nhs-number",
            "type": {
              "coding": [
                {
                  "code": "NH",
                  "system": "http://terminology.hl7.org/CodeSystem/v2-0203"
                }
              ]
            },
            "value": "MR"
          },
          "reference": "urn:uuid:e29fe7fa-9a80-49e5-a620-b3a30c2ea23a"
        },
        "valueCodeableConcept": {
          "coding": [
            {
              "code": "C0162635",
              "display": "Angelman syndrome",
              "system": "MedGen-Dis"
            }
          ]
        }
      }
    },
    {
      "fullUrl": "urn:uuid:3c1f90ea-1d6a-4889-af6e-fe70113a65f8",
      "resource": {
        "resourceType": "Observation",
        "code": {
          "coding": [
            {
              "code": "51967-8",
              "display": "Genetic disease(s) assessed",
              "system": "http://loinc.org"
            }
          ]
        },
        "identifier": [
          {
            "assigner": {
              "identifier": {
                "system": "https://fhir.nhs.uk/Id/ods-organization-code",
                "value": "699X0"
              }
            },
            "system": "https://fhir.nwgenomics.nhs.uk/iGene/ReportIdentifier",
            "type": {
              "coding": [
                {
                  "code": "FILL",
                  "system": "http://terminology.hl7.org/CodeSystem/v2-0203"
                }
              ]
            },
            "value": "Gen825750"
          }
        ],
        "performer": [
          {
            "identifier": {
              "system": "https://fhir.nhs.uk/Id/ods-organization-code",
              "value": "699X0"
            },
            "type": "Organization"
          }
        ],
        "status": "final",
        "subject": {
          "identifier": {
            "system": "https://fhir.nhs.uk/Id/nhs-number",
            "type": {
              "coding": [
                {
                  "code": "NH",
                  "system": "http://terminology.hl7.org/CodeSystem/v2-0203"
                }
              ]
            },
            "value": "MR"
          },
          "reference": "urn:uuid:e29fe7fa-9a80-49e5-a620-b3a30c2ea23a"
        },
        "valueCodeableConcept": {
          "coding": [
            {
              "code": "C2748910",
              "display": "Atypical Rett syndrome",
              "system": "MedGen-Dis"
            }
          ]
        }
      }
    },
    {
      "fullUrl": "urn:uuid:c55e3e8d-7356-4132-8c06-9092adab7501",
      "resource": {
        "resourceType": "Observation",
        "code": {
          "coding": [
            {
              "code": "48018-6",
              "display": "Gene studied",
              "system": "http://loinc.org"
            }
          ]
        },
        "identifier": [
          {
            "assigner": {
              "identifier": {
                "system": "https://fhir.nhs.uk/Id/ods-organization-code",
                "value": "699X0"
              }
            },
            "system": "https://fhir.nwgenomics.nhs.uk/iGene/ReportIdentifier",
            "type": {
              "coding": [
                {
                  "code": "FILL",
                  "system": "http://terminology.hl7.org/CodeSystem/v2-0203"
                }
              ]
            },
            "value": "Gen825750"
          }
        ],
        "performer": [
          {
            "identifier": {
              "system": "https://fhir.nhs.uk/Id/ods-organization-code",
              "value": "699X0"
            },
            "type": "Organization"
          }
        ],
        "status": "final",
        "subject": {
          "identifier": {
            "system": "https://fhir.nhs.uk/Id/nhs-number",
            "type": {
              "coding": [
                {
                  "code": "NH",
                  "system": "http://terminology.hl7.org/CodeSystem/v2-0203"
                }
              ]
            },
            "value": "MR"
          },
          "reference": "urn:uuid:e29fe7fa-9a80-49e5-a620-b3a30c2ea23a"
        },
        "valueCodeableConcept": {
          "coding": [
            {
              "code": "291",
              "display": "ADSL",
              "system": "http://www.genenames.org"
            }
          ]
        }
      }
    },
    {
      "fullUrl": "urn:uuid:5ad67969-a2f5-4d07-bf4b-cd9baa5994d0",
      "resource": {
        "resourceType": "Observation",
        "code": {
          "coding": [
            {
              "code": "48018-6",
              "display": "Gene studied",
              "system": "http://loinc.org"
            }
          ]
        },
        "identifier": [
          {
            "assigner": {
              "identifier": {
                "system": "https://fhir.nhs.uk/Id/ods-organization-code",
                "value": "699X0"
              }
            },
            "system": "https://fhir.nwgenomics.nhs.uk/iGene/ReportIdentifier",
            "type": {
              "coding": [
                {
                  "code": "FILL",
                  "system": "http://terminology.hl7.org/CodeSystem/v2-0203"
                }
              ]
            },
            "value": "Gen825750"
          }
        ],
        "performer": [
          {
            "identifier": {
              "system": "https://fhir.nhs.uk/Id/ods-organization-code",
              "value": "699X0"
            },
            "type": "Organization"
          }
        ],
        "status": "final",
        "subject": {
          "identifier": {
            "system": "https://fhir.nhs.uk/Id/nhs-number",
            "type": {
              "coding": [
                {
                  "code": "NH",
                  "system": "http://terminology.hl7.org/CodeSystem/v2-0203"
                }
              ]
            },
            "value": "MR"
          },
          "reference": "urn:uuid:e29fe7fa-9a80-49e5-a620-b3a30c2ea23a"
        },
        "valueCodeableConcept": {
          "coding": [
            {
              "code": "877",
              "display": "ALDH7A1",
              "system": "http://www.genenames.org"
            }
          ]
        }
      }
    },
    {
      "fullUrl": "urn:uuid:1230f1ef-4c07-4b19-9321-59de18ab6522",
      "resource": {
        "resourceType": "Observation",
        "code": {
          "coding": [
            {
              "code": "48018-6",
              "display": "Gene studied",
              "system": "http://loinc.org"
            }
          ]
        },
        "identifier": [
          {
            "assigner": {
              "identifier": {
                "system": "https://fhir.nhs.uk/Id/ods-organization-code",
                "value": "699X0"
              }
            },
            "system": "https://fhir.nwgenomics.nhs.uk/iGene/ReportIdentifier",
            "type": {
              "coding": [
                {
                  "code": "FILL",
                  "system": "http://terminology.hl7.org/CodeSystem/v2-0203"
                }
              ]
            },
            "value": "Gen825750"
          }
        ],
        "performer": [
          {
            "identifier": {
              "system": "https://fhir.nhs.uk/Id/ods-organization-code",
              "value": "699X0"
            },
            "type": "Organization"
          }
        ],
        "status": "final",
        "subject": {
          "identifier": {
            "system": "https://fhir.nhs.uk/Id/nhs-number",
            "type": {
              "coding": [
                {
                  "code": "NH",
                  "system": "http://terminology.hl7.org/CodeSystem/v2-0203"
                }
              ]
            },
            "value": "MR"
          },
          "reference": "urn:uuid:e29fe7fa-9a80-49e5-a620-b3a30c2ea23a"
        },
        "valueCodeableConcept": {
          "coding": [
            {
              "code": "30881",
              "display": "ALG13",
              "system": "http://www.genenames.org"
            }
          ]
        }
      }
    },
    {
      "fullUrl": "urn:uuid:f66ce0ed-7bf0-4806-b61b-a4c736caf264",
      "resource": {
        "resourceType": "Observation",
        "code": {
          "coding": [
            {
              "code": "48018-6",
              "display": "Gene studied",
              "system": "http://loinc.org"
            }
          ]
        },
        "identifier": [
          {
            "assigner": {
              "identifier": {
                "system": "https://fhir.nhs.uk/Id/ods-organization-code",
                "value": "699X0"
              }
            },
            "system": "https://fhir.nwgenomics.nhs.uk/iGene/ReportIdentifier",
            "type": {
              "coding": [
                {
                  "code": "FILL",
                  "system": "http://terminology.hl7.org/CodeSystem/v2-0203"
                }
              ]
            },
            "value": "Gen825750"
          }
        ],
        "performer": [
          {
            "identifier": {
              "system": "https://fhir.nhs.uk/Id/ods-organization-code",
              "value": "699X0"
            },
            "type": "Organization"
          }
        ],
        "status": "final",
        "subject": {
          "identifier": {
            "system": "https://fhir.nhs.uk/Id/nhs-number",
            "type": {
              "coding": [
                {
                  "code": "NH",
                  "system": "http://terminology.hl7.org/CodeSystem/v2-0203"
                }
              ]
            },
            "value": "MR"
          },
          "reference": "urn:uuid:e29fe7fa-9a80-49e5-a620-b3a30c2ea23a"
        },
        "valueCodeableConcept": {
          "coding": [
            {
              "code": "14561",
              "display": "ARHGEF9",
              "system": "http://www.genenames.org"
            }
          ]
        }
      }
    },
    {
      "fullUrl": "urn:uuid:29b50e86-ddbe-4aa4-ae24-4ede2bf4a7f7",
      "resource": {
        "resourceType": "Observation",
        "code": {
          "coding": [
            {
              "code": "48018-6",
              "display": "Gene studied",
              "system": "http://loinc.org"
            }
          ]
        },
        "identifier": [
          {
            "assigner": {
              "identifier": {
                "system": "https://fhir.nhs.uk/Id/ods-organization-code",
                "value": "699X0"
              }
            },
            "system": "https://fhir.nwgenomics.nhs.uk/iGene/ReportIdentifier",
            "type": {
              "coding": [
                {
                  "code": "FILL",
                  "system": "http://terminology.hl7.org/CodeSystem/v2-0203"
                }
              ]
            },
            "value": "Gen825750"
          }
        ],
        "performer": [
          {
            "identifier": {
              "system": "https://fhir.nhs.uk/Id/ods-organization-code",
              "value": "699X0"
            },
            "type": "Organization"
          }
        ],
        "status": "final",
        "subject": {
          "identifier": {
            "system": "https://fhir.nhs.uk/Id/nhs-number",
            "type": {
              "coding": [
                {
                  "code": "NH",
                  "system": "http://terminology.hl7.org/CodeSystem/v2-0203"
                }
              ]
            },
            "value": "MR"
          },
          "reference": "urn:uuid:e29fe7fa-9a80-49e5-a620-b3a30c2ea23a"
        },
        "valueCodeableConcept": {
          "coding": [
            {
              "code": "18060",
              "display": "ARX",
              "system": "http://www.genenames.org"
            }
          ]
        }
      }
    },
    {
      "fullUrl": "urn:uuid:99ec5e19-2a1a-4be8-be37-d4252d371a4c",
      "resource": {
        "resourceType": "Observation",
        "code": {
          "coding": [
            {
              "code": "51968-6",
              "display": "Discrete variation analysis overall interpretation",
              "system": "http://loinc.org"
            }
          ]
        },
        "identifier": [
          {
            "assigner": {
              "identifier": {
                "system": "https://fhir.nhs.uk/Id/ods-organization-code",
                "value": "699X0"
              }
            },
            "system": "https://fhir.nwgenomics.nhs.uk/iGene/ReportIdentifier",
            "type": {
              "coding": [
                {
                  "code": "FILL",
                  "system": "http://terminology.hl7.org/CodeSystem/v2-0203"
                }
              ]
            },
            "value": "Gen825750"
          }
        ],
        "performer": [
          {
            "identifier": {
              "system": "https://fhir.nhs.uk/Id/ods-organization-code",
              "value": "699X0"
            },
            "type": "Organization"
          }
        ],
        "status": "final",
        "subject": {
          "identifier": {
            "system": "https://fhir.nhs.uk/Id/nhs-number",
            "type": {
              "coding": [
                {
                  "code": "NH",
                  "system": "http://terminology.hl7.org/CodeSystem/v2-0203"
                }
              ]
            },
            "value": "MR"
          },
          "reference": "urn:uuid:e29fe7fa-9a80-49e5-a620-b3a30c2ea23a"
        },
        "valueCodeableConcept": {
          "coding": [
            {
              "code": "LA6576-8",
              "display": "Positive",
              "system": "http://loinc.org"
            }
          ]
        }
      }
    },
    {
      "fullUrl": "urn:uuid:eac501d9-3bdc-4632-95d1-22de9fab61df",
      "resource": {
        "resourceType": "Observation",
        "code": {
          "coding": [
            {
              "code": "83006-7",
              "display": "Deletion-duplication overall interpretation",
              "system": "http://loinc.org"
            }
          ]
        },
        "identifier": [
          {
            "assigner": {
              "identifier": {
                "system": "https://fhir.nhs.uk/Id/ods-organization-code",
                "value": "699X0"
              }
            },
            "system": "https://fhir.nwgenomics.nhs.uk/iGene/ReportIdentifier",
            "type": {
              "coding": [
                {
                  "code": "FILL",
                  "system": "http://terminology.hl7.org/CodeSystem/v2-0203"
                }
              ]
            },
            "value": "Gen825750"
          }
        ],
        "performer": [
          {
            "identifier": {
              "system": "https://fhir.nhs.uk/Id/ods-organization-code",
              "value": "699X0"
            },
            "type": "Organization"
          }
        ],
        "status": "final",
        "subject": {
          "identifier": {
            "system": "https://fhir.nhs.uk/Id/nhs-number",
            "type": {
              "coding": [
                {
                  "code": "NH",
                  "system": "http://terminology.hl7.org/CodeSystem/v2-0203"
                }
              ]
            },
            "value": "MR"
          },
          "reference": "urn:uuid:e29fe7fa-9a80-49e5-a620-b3a30c2ea23a"
        },
        "valueCodeableConcept": {
          "coding": [
            {
              "code": "LA26803-9",
              "display": "No deletion duplications detected in studied regions",
              "system": "http://loinc.org"
            }
          ]
        }
      }
    },
    {
      "fullUrl": "urn:uuid:ecef83c7-3e30-43d2-acc0-edb4090593a4",
      "resource": {
        "resourceType": "Binary",
        "contentType": "application/pdf",
        "data": ""
      }
    },
    {
      "fullUrl": "urn:uuid:9f428120-f051-4c77-9e6a-3dd6e0a44645",
      "resource": {
        "resourceType": "DocumentReference",
        "content": [
          {
            "attachment": {
              "contentType": "application/pdf",
              "url": "urn:uuid:ecef83c7-3e30-43d2-acc0-edb4090593a4"
            }
          }
        ],
        "context": {
          "period": {
            "end": "2016-08-09T16:50:00+00:00",
            "start": "2016-08-09T16:50:00+00:00"
          },
          "related": [
            {
              "identifier": {
                "assigner": {
                  "identifier": {
                    "system": "https://fhir.nhs.uk/Id/ods-organization-code",
                    "value": "RBS"
                  }
                },
                "type": {
                  "coding": [
                    {
                      "code": "PLAC",
                      "system": "http://terminology.hl7.org/CodeSystem/v2-0203"
                    }
                  ]
                },
                "value": "LRI-5280001671"
              },
              "reference": "urn:uuid:28bfea97-55d0-4a35-b304-b0ea5951f9c6",
              "type": "ServiceRequest"
            },
            {
              "identifier": {
                "assigner": {
                  "identifier": {
                    "system": "https://fhir.nhs.uk/Id/ods-organization-code",
                    "value": "699X0"
                  }
                },
                "system": "https://fhir.nwgenomics.nhs.uk/iGene/ReportIdentifier",
                "type": {
                  "coding": [
                    {
                      "code": "FILL",
                      "system": "http://terminology.hl7.org/CodeSystem/v2-0203"
                    }
                  ]
                },
                "value": "Gen825750"
              },
              "reference": "urn:uuid:45bc2a06-ee60-4e9a-9f97-1f4eb8e5cfd7",
              "type": "DiagnosticReport"
            }
          ]
        },
        "custodian": {
          "identifier": {
            "system": "https://fhir.nhs.uk/Id/ods-organization-code",
            "value": "699X0"
          },
          "type": "Organization"
        },
        "date": "2016-08-09T16:50:00+00:00",
        "identifier": [
          {
            "assigner": {
              "identifier": {
                "system": "https://fhir.nhs.uk/Id/ods-organization-code",
                "value": "699X0"
              }
            },
            "system": "https://fhir.nwgenomics.nhs.uk/iGene/ReportIdentifier",
            "type": {
              "coding": [
                {
                  "code": "FILL",
                  "system": "http://terminology.hl7.org/CodeSystem/v2-0203"
                }
              ]
            },
            "value": "Gen825750"
          }
        ],
        "status": "current",
        "subject": {
          "identifier": {
            "system": "https://fhir.nhs.uk/Id/nhs-number",
            "type": {
              "coding": [
                {
                  "code": "NH",
                  "system": "http://terminology.hl7.org/CodeSystem/v2-0203"
                }
              ]
            },
            "value": "MR"
          },
          "reference": "urn:uuid:e29fe7fa-9a80-49e5-a620-b3a30c2ea23a"
        },
        "type": {
          "coding": [
            {
              "code": "1054161000000101",
              "display": "Genetic report",
              "system": "http://snomed.info/sct"
            }
          ]
        }
      }
    },
    {
      "fullUrl": "urn:uuid:2ef7ed53-06e2-4956-8ed8-2f9bcc48f089",
      "resource": {
        "resourceType": "Observation",
        "code": {
          "coding": [
            {
              "code": "81293-3",
              "display": "Description of ranges of DNA sequences examined",
              "system": "http://loinc.org"
            }
          ]
        },
        "identifier": [
          {
            "assigner": {
              "identifier": {
                "system": "https://fhir.nhs.uk/Id/ods-organization-code",
                "value": "699X0"
              }
            },
            "system": "https://fhir.nwgenomics.nhs.uk/iGene/ReportIdentifier",
            "type": {
              "coding": [
                {
                  "code": "FILL",
                  "system": "http://terminology.hl7.org/CodeSystem/v2-0203"
                }
              ]
            },
            "value": "Gen825750"
          }
        ],
        "performer": [
          {
            "identifier": {
              "system": "https://fhir.nhs.uk/Id/ods-organization-code",
              "value": "699X0"
            },
            "type": "Organization"
          }
        ],
        "status": "final",
        "subject": {
          "identifier": {
            "system": "https://fhir.nhs.uk/Id/nhs-number",
            "type": {
              "coding": [
                {
                  "code": "NH",
                  "system": "http://terminology.hl7.org/CodeSystem/v2-0203"
                }
              ]
            },
            "value": "MR"
          },
          "reference": "urn:uuid:e29fe7fa-9a80-49e5-a620-b3a30c2ea23a"
        },
        "valueString": "The sequencing component of the test includes all genes listed above except for CHRNA7 and MAGI2, since only large deletions have been reported in these genes."
      }
    },
    {
      "fullUrl": "urn:uuid:6ffdbee8-ecc9-4ace-8fc3-924447b9a897",
      "resource": {
        "resourceType": "Observation",
        "code": {
          "coding": [
            {
              "code": "62374-4",
              "display": "Human reference sequence assembly",
              "system": "http://loinc.org"
            }
          ]
        },
        "identifier": [
          {
            "assigner": {
              "identifier": {
                "system": "https://fhir.nhs.uk/Id/ods-organization-code",
                "value": "699X0"
              }
            },
            "system": "https://fhir.nwgenomics.nhs.uk/iGene/ReportIdentifier",
            "type": {
              "coding": [
                {
                  "code": "FILL",
                  "system": "http://terminology.hl7.org/CodeSystem/v2-0203"
                }
              ]
            },
            "value": "Gen825750"
          }
        ],
        "performer": [
          {
            "identifier": {
              "system": "https://fhir.nhs.uk/Id/ods-organization-code",
              "value": "699X0"
            },
            "type": "Organization"
          }
        ],
        "status": "final",
        "subject": {
          "identifier": {
            "system": "https://fhir.nhs.uk/Id/nhs-number",
            "type": {
              "coding": [
                {
                  "code": "NH",
                  "system": "http://terminology.hl7.org/CodeSystem/v2-0203"
                }
              ]
            },
            "value": "MR"
          },
          "reference": "urn:uuid:e29fe7fa-9a80-49e5-a620-b3a30c2ea23a"
        },
        "valueCodeableConcept": {
          "coding": [
            {
              "code": "LA14029-5",
              "display": "GRCh37",
              "system": "http://loinc.org"
            }
          ]
        }
      }
    },
    {
      "fullUrl": "urn:uuid:9c902584-d714-4949-b040-47755e8da517",
      "resource": {
        "resourceType": "Observation",
        "code": {
          "coding": [
            {
              "code": "82115-7",
              "display": "dbSNP version",
              "system": "http://loinc.org"
            }
          ]
        },
        "identifier": [
          {
            "assigner": {
              "identifier": {
                "system": "https://fhir.nhs.uk/Id/ods-organization-code",
                "value": "699X0"
              }
            },
            "system": "https://fhir.nwgenomics.nhs.uk/iGene/ReportIdentifier",
            "type": {
              "coding": [
                {
                  "code": "FILL",
                  "system": "http://terminology.hl7.org/CodeSystem/v2-0203"
                }
              ]
            },
            "value": "Gen825750"
          }
        ],
        "performer": [
          {
            "identifier": {
              "system": "https://fhir.nhs.uk/Id/ods-organization-code",
              "value": "699X0"
            },
            "type": "Organization"
          }
        ],
        "status": "final",
        "subject": {
          "identifier": {
            "system": "https://fhir.nhs.uk/Id/nhs-number",
            "type": {
              "coding": [
                {
                  "code": "NH",
                  "system": "http://terminology.hl7.org/CodeSystem/v2-0203"
                }
              ]
            },
            "value": "MR"
          },
          "reference": "urn:uuid:e29fe7fa-9a80-49e5-a620-b3a30c2ea23a"
        },
        "valueQuantity": {
          "system": "http://unitsofmeasure.org",
          "unit": "Attributes of First Discrete Genetic Variants: Report Section 2",
          "value": 147
        }
      }
    },
    {
      "fullUrl": "urn:uuid:43e9b370-a280-4685-b074-ca300970cd19",
      "resource": {
        "resourceType": "Observation",
        "code": {
          "coding": [
            {
              "code": "83005-9",
              "display": "Variant Category",
              "system": "http://loinc.org"
            }
          ]
        },
        "identifier": [
          {
            "assigner": {
              "identifier": {
                "system": "https://fhir.nhs.uk/Id/ods-organization-code",
                "value": "699X0"
              }
            },
            "system": "https://fhir.nwgenomics.nhs.uk/iGene/ReportIdentifier",
            "type": {
              "coding": [
                {
                  "code": "FILL",
                  "system": "http://terminology.hl7.org/CodeSystem/v2-0203"
                }
              ]
            },
            "value": "Gen825750"
          }
        ],
        "performer": [
          {
            "identifier": {
              "system": "https://fhir.nhs.uk/Id/ods-organization-code",
              "value": "699X0"
            },
            "type": "Organization"
          }
        ],
        "status": "final",
        "subject": {
          "identifier": {
            "system": "https://fhir.nhs.uk/Id/nhs-number",
            "type": {
              "coding": [
                {
                  "code": "NH",
                  "system": "http://terminology.hl7.org/CodeSystem/v2-0203"
                }
              ]
            },
            "value": "MR"
          },
          "reference": "urn:uuid:e29fe7fa-9a80-49e5-a620-b3a30c2ea23a"
        },
        "valueCodeableConcept": {
          "coding": [
            {
              "code": "LA26801-3",
              "display": "SimpleVariant",
              "system": "http://loinc.org"
            }
          ]
        }
      }
    },
    {
      "fullUrl": "urn:uuid:bda33eea-805c-43e6-962c-787f96195f79",
      "resource": {
        "resourceType": "Observation",
        "code": {
          "coding": [
            {
              "code": "81252-9",
              "display": "Discrete genetic variant",
              "system": "http://loinc.org"
            }
          ]
        },
        "identifier": [
          {
            "assigner": {
              "identifier": {
                "system": "https://fhir.nhs.uk/Id/ods-organization-code",
                "value": "699X0"
              }
            },
            "system": "https://fhir.nwgenomics.nhs.uk/iGene/ReportIdentifier",
            "type": {
              "coding": [
                {
                  "code": "FILL",
                  "system": "http://terminology.hl7.org/CodeSystem/v2-0203"
                }
              ]
            },
            "value": "Gen825750"
          }
        ],
        "performer": [
          {
            "identifier": {
              "system": "https://fhir.nhs.uk/Id/ods-organization-code",
              "value": "699X0"
            },
            "type": "Organization"
          }
        ],
        "status": "final",
        "subject": {
          "identifier": {
            "system": "https://fhir.nhs.uk/Id/nhs-number",
            "type": {
              "coding": [
                {
                  "code": "NH",
                  "system": "http://terminology.hl7.org/CodeSystem/v2-0203"
                }
              ]
            },
            "value": "MR"
          },
          "reference": "urn:uuid:e29fe7fa-9a80-49e5-a620-b3a30c2ea23a"
        },
        "valueCodeableConcept": {
          "coding": [
            {
              "code": "No-Variant-ID",
              "display": "NM_007254.3(PNKP):c.1315C>T(p.Arg439Ter)",
              "system": "http://www.ncbi.nlm.nih.gov/clinvar"
            }
          ]
        }
      }
    },
    {
      "fullUrl": "urn:uuid:c41f30b1-0641-4ff4-9d23-b134315682d3",
      "resource": {
        "resourceType": "Observation",
        "code": {
          "coding": [
            {
              "code": "48018-6",
              "display": "Gene studied",
              "system": "http://loinc.org"
            }
          ]
        },
        "identifier": [
          {
            "assigner": {
              "identifier": {
                "system": "https://fhir.nhs.uk/Id/ods-organization-code",
                "value": "699X0"
              }
            },
            "system": "https://fhir.nwgenomics.nhs.uk/iGene/ReportIdentifier",
            "type": {
              "coding": [
                {
                  "code": "FILL",
                  "system": "http://terminology.hl7.org/CodeSystem/v2-0203"
                }
              ]
            },
            "value": "Gen825750"
          }
        ],
        "performer": [
          {
            "identifier": {
              "system": "https://fhir.nhs.uk/Id/ods-organization-code",
              "value": "699X0"
            },
            "type": "Organization"
          }
        ],
        "status": "final",
        "subject": {
          "identifier": {
            "system": "https://fhir.nhs.uk/Id/nhs-number",
            "type": {
              "coding": [
                {
                  "code": "NH",
                  "system": "http://terminology.hl7.org/CodeSystem/v2-0203"
                }
              ]
            },
            "value": "MR"
          },
          "reference": "urn:uuid:e29fe7fa-9a80-49e5-a620-b3a30c2ea23a"
        },
        "valueCodeableConcept": {
          "coding": [
            {
              "code": "9154",
              "display": "PNKP",
              "system": "http://www.genenames.org"
            }
          ]
        }
      }
    },
    {
      "fullUrl": "urn:uuid:e4a4bc41-e930-426d-9bf7-c05068c15d27",
      "resource": {
        "resourceType": "Observation",
        "code": {
          "coding": [
            {
              "code": "51958-7",
              "display": "Transcript RefSeq ID",
              "system": "http://loinc.org"
            }
          ]
        },
        "identifier": [
          {
            "assigner": {
              "identifier": {
                "system": "https://fhir.nhs.uk/Id/ods-organization-code",
                "value": "699X0"
              }
            },
            "system": "https://fhir.nwgenomics.nhs.uk/iGene/ReportIdentifier",
            "type": {
              "coding": [
                {
                  "code": "FILL",
                  "system": "http://terminology.hl7.org/CodeSystem/v2-0203"
                }
              ]
            },
            "value": "Gen825750"
          }
        ],
        "performer": [
          {
            "identifier": {
              "system": "https://fhir.nhs.uk/Id/ods-organization-code",
              "value": "699X0"
            },
            "type": "Organization"
          }
        ],
        "status": "final",
        "subject": {
          "identifier": {
            "system": "https://fhir.nhs.uk/Id/nhs-number",
            "type": {
              "coding": [
                {
                  "code": "NH",
                  "system": "http://terminology.hl7.org/CodeSystem/v2-0203"
                }
              ]
            },
            "value": "MR"
          },
          "reference": "urn:uuid:e29fe7fa-9a80-49e5-a620-b3a30c2ea23a"
        },
        "valueCodeableConcept": {
          "coding": [
            {
              "code": "NM_007254.3",
              "display": "NM_007254.3",
              "system": "http://www.ncbi.nlm.nih.gov/refseq"
            }
          ]
        }
      }
    },
    {
      "fullUrl": "urn:uuid:ec7676f9-9204-4c1c-be10-558a1ed99723",
      "resource": {
        "resourceType": "Observation",
        "code": {
          "coding": [
            {
              "code": "41103-3",
              "display": "Transcript DNA Change (cHGVS)",
              "system": "http://loinc.org"
            }
          ]
        },
        "identifier": [
          {
            "assigner": {
              "identifier": {
                "system": "https://fhir.nhs.uk/Id/ods-organization-code",
                "value": "699X0"
              }
            },
            "system": "https://fhir.nwgenomics.nhs.uk/iGene/ReportIdentifier",
            "type": {
              "coding": [
                {
                  "code": "FILL",
                  "system": "http://terminology.hl7.org/CodeSystem/v2-0203"
                }
              ]
            },
            "value": "Gen825750"
          }
        ],
        "performer": [
          {
            "identifier": {
              "system": "https://fhir.nhs.uk/Id/ods-organization-code",
              "value": "699X0"
            },
            "type": "Organization"
          }
        ],
        "status": "final",
        "subject": {
          "identifier": {
            "system": "https://fhir.nhs.uk/Id/nhs-number",
            "type": {
              "coding": [
                {
                  "code": "NH",
                  "system": "http://terminology.hl7.org/CodeSystem/v2-0203"
                }
              ]
            },
            "value": "MR"
          },
          "reference": "urn:uuid:e29fe7fa-9a80-49e5-a620-b3a30c2ea23a"
        },
        "valueCodeableConcept": {
          "coding": [
            {
              "code": "c.610C>T",
              "display": "c.1315C>T",
              "system": "http://varnomen.hgvs.org"
            }
          ]
        }
      }
    },
    {
      "fullUrl": "urn:uuid:562f35b0-4f46-444e-935e-24d18753e9bc",
      "resource": {
        "resourceType": "Observation",
        "code": {
          "coding": [
            {
              "code": "48005-3",
              "display": "Amino acid change p.HGVS",
              "system": "http://loinc.org"
            }
          ]
        },
        "identifier": [
          {
            "assigner": {
              "identifier": {
                "system": "https://fhir.nhs.uk/Id/ods-organization-code",
                "value": "699X0"
              }
            },
            "system": "https://fhir.nwgenomics.nhs.uk/iGene/ReportIdentifier",
            "type": {
              "coding": [
                {
                  "code": "FILL",
                  "system": "http://terminology.hl7.org/CodeSystem/v2-0203"
                }
              ]
            },
            "value": "Gen825750"
          }
        ],
        "performer": [
          {
            "identifier": {
              "system": "https://fhir.nhs.uk/Id/ods-organization-code",
              "value": "699X0"
            },
            "type": "Organization"
          }
        ],
        "status": "final",
        "subject": {
          "identifier": {
            "system": "https://fhir.nhs.uk/Id/nhs-number",
            "type": {
              "coding": [
                {
                  "code": "NH",
                  "system": "http://terminology.hl7.org/CodeSystem/v2-0203"
                }
              ]
            },
            "value": "MR"
          },
          "reference": "urn:uuid:e29fe7fa-9a80-49e5-a620-b3a30c2ea23a"
        },
        "valueCodeableConcept": {
          "coding": [
            {
              "code": "p.Arg204Ter",
              "display": "p.Arg439Ter",
              "system": "http://varnomen.hgvs.org"
            }
          ]
        }
      }
    },
    {
      "fullUrl": "urn:uuid:7f675680-a8c8-4fcc-80d3-0f6e3e0e260a",
      "resource": {
        "resourceType": "Observation",
        "code": {
          "coding": [
            {
              "code": "48019-4",
              "display": "DNA change type",
              "system": "http://loinc.org"
            }
          ]
        },
        "identifier": [
          {
            "assigner": {
              "identifier": {
                "system": "https://fhir.nhs.uk/Id/ods-organization-code",
                "value": "699X0"
              }
            },
            "system": "https://fhir.nwgenomics.nhs.uk/iGene/ReportIdentifier",
            "type": {
              "coding": [
                {
                  "code": "FILL",
                  "system": "http://terminology.hl7.org/CodeSystem/v2-0203"
                }
              ]
            },
            "value": "Gen825750"
          }
        ],
        "performer": [
          {
            "identifier": {
              "system": "https://fhir.nhs.uk/Id/ods-organization-code",
              "value": "699X0"
            },
            "type": "Organization"
          }
        ],
        "status": "final",
        "subject": {
          "identifier": {
            "system": "https://fhir.nhs.uk/Id/nhs-number",
            "type": {
              "coding": [
                {
                  "code": "NH",
                  "system": "http://terminology.hl7.org/CodeSystem/v2-0203"
                }
              ]
            },
            "value": "MR"
          },
          "reference": "urn:uuid:e29fe7fa-9a80-49e5-a620-b3a30c2ea23a"
        },
        "valueCodeableConcept": {
          "coding": [
            {
              "code": "LA6690-7",
              "display": "Substitution",
              "system": "http://loinc.org"
            }
          ]
        }
      }
    },
    {
      "fullUrl": "urn:uuid:0924ecb0-d9af-46e6-907f-acfaa197537f",
      "resource": {
        "resourceType": "Observation",
        "code": {
          "coding": [
            {
              "code": "48006-1",
              "display": "Amino acid change type",
              "system": "http://loinc.org"
            }
          ]
        },
        "identifier": [
          {
            "assigner": {
              "identifier": {
                "system": "https://fhir.nhs.uk/Id/ods-organization-code",
                "value": "699X0"
              }
            },
            "system": "https://fhir.nwgenomics.nhs.uk/iGene/ReportIdentifier",
            "type": {
              "coding": [
                {
                  "code": "FILL",
                  "system": "http://terminology.hl7.org/CodeSystem/v2-0203"
                }
              ]
            },
            "value": "Gen825750"
          }
        ],
        "performer": [
          {
            "identifier": {
              "system": "https://fhir.nhs.uk/Id/ods-organization-code",
              "value": "699X0"
            },
            "type": "Organization"
          }
        ],
        "status": "final",
        "subject": {
          "identifier": {
            "system": "https://fhir.nhs.uk/Id/nhs-number",
            "type": {
              "coding": [
                {
                  "code": "NH",
                  "system": "http://terminology.hl7.org/CodeSystem/v2-0203"
                }
              ]
            },
            "value": "MR"
          },
          "reference": "urn:uuid:e29fe7fa-9a80-49e5-a620-b3a30c2ea23a"
        },
        "valueCodeableConcept": {
          "coding": [
            {
              "code": "LA6699-8",
              "display": "Nonsense",
              "system": "http://loinc.org"
            }
          ]
        }
      }
    },
    {
      "fullUrl": "urn:uuid:93c093af-bc65-4941-9807-97f074ae3405",
      "resource": {
        "resourceType": "Observation",
        "code": {
          "coding": [
            {
              "code": "81290-9",
              "display": "Genomic DNA change (gHGVS)",
              "system": "http://loinc.org"
            }
          ]
        },
        "identifier": [
          {
            "assigner": {
              "identifier": {
                "system": "https://fhir.nhs.uk/Id/ods-organization-code",
                "value": "699X0"
              }
            },
            "system": "https://fhir.nwgenomics.nhs.uk/iGene/ReportIdentifier",
            "type": {
              "coding": [
                {
                  "code": "FILL",
                  "system": "http://terminology.hl7.org/CodeSystem/v2-0203"
                }
              ]
            },
            "value": "Gen825750"
          }
        ],
        "performer": [
          {
            "identifier": {
              "system": "https://fhir.nhs.uk/Id/ods-organization-code",
              "value": "699X0"
            },
            "type": "Organization"
          }
        ],
        "status": "final",
        "subject": {
          "identifier": {
            "system": "https://fhir.nhs.uk/Id/nhs-number",
            "type": {
              "coding": [
                {
                  "code": "NH",
                  "system": "http://terminology.hl7.org/CodeSystem/v2-0203"
                }
              ]
            },
            "value": "MR"
          },
          "reference": "urn:uuid:e29fe7fa-9a80-49e5-a620-b3a30c2ea23a"
        },
        "valueCodeableConcept": {
          "coding": [
            {
              "code": "NC_000019.9",
              "display": "NC_000019.9",
              "system": "http://www.ncbi.nlm.nih.gov/refseq"
            }
          ]
        }
      }
    },
    {
      "fullUrl": "urn:uuid:387fdfc6-d12f-49fb-b6ed-ca42174fb34d",
      "resource": {
        "resourceType": "Observation",
        "code": {
          "coding": [
            {
              "code": "69547-8",
              "display": "Genomic ref allele",
              "system": "http://loinc.org"
            }
          ]
        },
        "identifier": [
          {
            "assigner": {
              "identifier": {
                "system": "https://fhir.nhs.uk/Id/ods-organization-code",
                "value": "699X0"
              }
            },
            "system": "https://fhir.nwgenomics.nhs.uk/iGene/ReportIdentifier",
            "type": {
              "coding": [
                {
                  "code": "FILL",
                  "system": "http://terminology.hl7.org/CodeSystem/v2-0203"
                }
              ]
            },
            "value": "Gen825750"
          }
        ],
        "performer": [
          {
            "identifier": {
              "system": "https://fhir.nhs.uk/Id/ods-organization-code",
              "value": "699X0"
            },
            "type": "Organization"
          }
        ],
        "status": "final",
        "subject": {
          "identifier": {
            "system": "https://fhir.nhs.uk/Id/nhs-number",
            "type": {
              "coding": [
                {
                  "code": "NH",
                  "system": "http://terminology.hl7.org/CodeSystem/v2-0203"
                }
              ]
            },
            "value": "MR"
          },
          "reference": "urn:uuid:e29fe7fa-9a80-49e5-a620-b3a30c2ea23a"
        },
        "valueString": "G"
      }
    },
    {
      "fullUrl": "urn:uuid:7abfd0bf-9ee1-41d5-9bda-713a40cae627",
      "resource": {
        "resourceType": "Observation",
        "code": {
          "coding": [
            {
              "code": "81254-5",
              "display": "Genomic allele start-end",
              "system": "http://loinc.org"
            }
          ]
        },
        "identifier": [
          {
            "assigner": {
              "identifier": {
                "system": "https://fhir.nhs.uk/Id/ods-organization-code",
                "value": "699X0"
              }
            },
            "system": "https://fhir.nwgenomics.nhs.uk/iGene/ReportIdentifier",
            "type": {
              "coding": [
                {
                  "code": "FILL",
                  "system": "http://terminology.hl7.org/CodeSystem/v2-0203"
                }
              ]
            },
            "value": "Gen825750"
          }
        ],
        "performer": [
          {
            "identifier": {
              "system": "https://fhir.nhs.uk/Id/ods-organization-code",
              "value": "699X0"
            },
            "type": "Organization"
          }
        ],
        "status": "final",
        "subject": {
          "identifier": {
            "system": "https://fhir.nhs.uk/Id/nhs-number",
            "type": {
              "coding": [
                {
                  "code": "NH",
                  "system": "http://terminology.hl7.org/CodeSystem/v2-0203"
                }
              ]
            },
            "value": "MR"
          },
          "reference": "urn:uuid:e29fe7fa-9a80-49e5-a620-b3a30c2ea23a"
        }
      }
    },
    {
      "fullUrl": "urn:uuid:c2b8bfe9-37d0-4898-b71f-064b9d575f72",
      "resource": {
        "resourceType": "Observation",
        "code": {
          "coding": [
            {
              "code": "69551-0",
              "display": "Genomic alt allele",
              "system": "http://loinc.org"
            }
          ]
        },
        "identifier": [
          {
            "assigner": {
              "identifier": {
                "system": "https://fhir.nhs.uk/Id/ods-organization-code",
                "value": "699X0"
              }
            },
            "system": "https://fhir.nwgenomics.nhs.uk/iGene/ReportIdentifier",
            "type": {
              "coding": [
                {
                  "code": "FILL",
                  "system": "http://terminology.hl7.org/CodeSystem/v2-0203"
                }
              ]
            },
            "value": "Gen825750"
          }
        ],
        "performer": [
          {
            "identifier": {
              "system": "https://fhir.nhs.uk/Id/ods-organization-code",
              "value": "699X0"
            },
            "type": "Organization"
          }
        ],
        "status": "final",
        "subject": {
          "identifier": {
            "system": "https://fhir.nhs.uk/Id/nhs-number",
            "type": {
              "coding": [
                {
                  "code": "NH",
                  "system": "http://terminology.hl7.org/CodeSystem/v2-0203"
                }
              ]
            },
            "value": "MR"
          },
          "reference": "urn:uuid:e29fe7fa-9a80-49e5-a620-b3a30c2ea23a"
        },
        "valueString": "A"
      }
    },
    {
      "fullUrl": "urn:uuid:fdcc93ac-5dd7-4adb-b7f6-f716804644db",
      "resource": {
        "resourceType": "Observation",
        "code": {
          "coding": [
            {
              "code": "81255-2",
              "display": "dbSNP ID",
              "system": "http://loinc.org"
            }
          ]
        },
        "identifier": [
          {
            "assigner": {
              "identifier": {
                "system": "https://fhir.nhs.uk/Id/ods-organization-code",
                "value": "699X0"
              }
            },
            "system": "https://fhir.nwgenomics.nhs.uk/iGene/ReportIdentifier",
            "type": {
              "coding": [
                {
                  "code": "FILL",
                  "system": "http://terminology.hl7.org/CodeSystem/v2-0203"
                }
              ]
            },
            "value": "Gen825750"
          }
        ],
        "performer": [
          {
            "identifier": {
              "system": "https://fhir.nhs.uk/Id/ods-organization-code",
              "value": "699X0"
            },
            "type": "Organization"
          }
        ],
        "status": "final",
        "subject": {
          "identifier": {
            "system": "https://fhir.nhs.uk/Id/nhs-number",
            "type": {
              "coding": [
                {
                  "code": "NH",
                  "system": "http://terminology.hl7.org/CodeSystem/v2-0203"
                }
              ]
            },
            "value": "MR"
          },
          "reference": "urn:uuid:e29fe7fa-9a80-49e5-a620-b3a30c2ea23a"
        },
        "valueCodeableConcept": {
          "coding": [
            {
              "code": "rs796052850",
              "display": "rs796052850",
              "system": "http://www.ncbi.nlm.nih.gov/projects/SNP"
            }
          ]
        }
      }
    },
    {
      "fullUrl": "urn:uuid:e3983f9a-2bcd-43df-8f0e-56b8564cfc41",
      "resource": {
        "resourceType": "Observation",
        "code": {
          "coding": [
            {
              "code": "48001-2",
              "display": "Cytogenetic (chromosome) location",
              "system": "http://loinc.org"
            }
          ]
        },
        "identifier": [
          {
            "assigner": {
              "identifier": {
                "system": "https://fhir.nhs.uk/Id/ods-organization-code",
                "value": "699X0"
              }
            },
            "system": "https://fhir.nwgenomics.nhs.uk/iGene/ReportIdentifier",
            "type": {
              "coding": [
                {
                  "code": "FILL",
                  "system": "http://terminology.hl7.org/CodeSystem/v2-0203"
                }
              ]
            },
            "value": "Gen825750"
          }
        ],
        "performer": [
          {
            "identifier": {
              "system": "https://fhir.nhs.uk/Id/ods-organization-code",
              "value": "699X0"
            },
            "type": "Organization"
          }
        ],
        "status": "final",
        "subject": {
          "identifier": {
            "system": "https://fhir.nhs.uk/Id/nhs-number",
            "type": {
              "coding": [
                {
                  "code": "NH",
                  "system": "http://terminology.hl7.org/CodeSystem/v2-0203"
                }
              ]
            },
            "value": "MR"
          },
          "reference": "urn:uuid:e29fe7fa-9a80-49e5-a620-b3a30c2ea23a"
        },
        "valueCodeableConcept": {
          "coding": [
            {
              "code": "19q13.33",
              "display": "19q13.33",
              "system": "Chrom-Loc"
            }
          ]
        }
      }
    },
    {
      "fullUrl": "urn:uuid:0e121b7a-9555-45b2-b9e8-f974a54fd406",
      "resource": {
        "resourceType": "Observation",
        "code": {
          "coding": [
            {
              "code": "48002-0",
              "display": "Genomic source class",
              "system": "http://loinc.org"
            }
          ]
        },
        "identifier": [
          {
            "assigner": {
              "identifier": {
                "system": "https://fhir.nhs.uk/Id/ods-organization-code",
                "value": "699X0"
              }
            },
            "system": "https://fhir.nwgenomics.nhs.uk/iGene/ReportIdentifier",
            "type": {
              "coding": [
                {
                  "code": "FILL",
                  "system": "http://terminology.hl7.org/CodeSystem/v2-0203"
                }
              ]
            },
            "value": "Gen825750"
          }
        ],
        "performer": [
          {
            "identifier": {
              "system": "https://fhir.nhs.uk/Id/ods-organization-code",
              "value": "699X0"
            },
            "type": "Organization"
          }
        ],
        "status": "final",
        "subject": {
          "identifier": {
            "system": "https://fhir.nhs.uk/Id/nhs-number",
            "type": {
              "coding": [
                {
                  "code": "NH",
                  "system": "http://terminology.hl7.org/CodeSystem/v2-0203"
                }
              ]
            },
            "value": "MR"
          },
          "reference": "urn:uuid:e29fe7fa-9a80-49e5-a620-b3a30c2ea23a"
        },
        "valueCodeableConcept": {
          "coding": [
            {
              "code": "LA6683-2",
              "display": "Germline",
              "system": "http://loinc.org"
            }
          ]
        }
      }
    },
    {
      "fullUrl": "urn:uuid:6861f02f-3079-42cc-a206-58f1a7c719ff",
      "resource": {
        "resourceType": "Observation",
        "code": {
          "coding": [
            {
              "code": "53037-8",
              "display": "Genetic variation clinical significance",
              "system": "http://loinc.org"
            }
          ]
        },
        "identifier": [
          {
            "assigner": {
              "identifier": {
                "system": "https://fhir.nhs.uk/Id/ods-organization-code",
                "value": "699X0"
              }
            },
            "system": "https://fhir.nwgenomics.nhs.uk/iGene/ReportIdentifier",
            "type": {
              "coding": [
                {
                  "code": "FILL",
                  "system": "http://terminology.hl7.org/CodeSystem/v2-0203"
                }
              ]
            },
            "value": "Gen825750"
          }
        ],
        "performer": [
          {
            "identifier": {
              "system": "https://fhir.nhs.uk/Id/ods-organization-code",
              "value": "699X0"
            },
            "type": "Organization"
          }
        ],
        "status": "final",
        "subject": {
          "identifier": {
            "system": "https://fhir.nhs.uk/Id/nhs-number",
            "type": {
              "coding": [
                {
                  "code": "NH",
                  "system": "http://terminology.hl7.org/CodeSystem/v2-0203"
                }
              ]
            },
            "value": "MR"
          },
          "reference": "urn:uuid:e29fe7fa-9a80-49e5-a620-b3a30c2ea23a"
        },
        "valueCodeableConcept": {
          "coding": [
            {
              "code": "LA6668-3",
              "display": "Pathogenic",
              "system": "http://loinc.org"
            }
          ]
        }
      }
    },
    {
      "fullUrl": "urn:uuid:67cf101c-2581-4f77-b1c8-ae5f6e55c6c8",
      "resource": {
        "resourceType": "Observation",
        "code": {
          "coding": [
            {
              "code": "69548-6",
              "display": "Genomic variant assessment",
              "system": "http://loinc.org"
            }
          ]
        },
        "identifier": [
          {
            "assigner": {
              "identifier": {
                "system": "https://fhir.nhs.uk/Id/ods-organization-code",
                "value": "699X0"
              }
            },
            "system": "https://fhir.nwgenomics.nhs.uk/iGene/ReportIdentifier",
            "type": {
              "coding": [
                {
                  "code": "FILL",
                  "system": "http://terminology.hl7.org/CodeSystem/v2-0203"
                }
              ]
            },
            "value": "Gen825750"
          }
        ],
        "performer": [
          {
            "identifier": {
              "system": "https://fhir.nhs.uk/Id/ods-organization-code",
              "value": "699X0"
            },
            "type": "Organization"
          }
        ],
        "status": "final",
        "subject": {
          "identifier": {
            "system": "https://fhir.nhs.uk/Id/nhs-number",
            "type": {
              "coding": [
                {
                  "code": "NH",
                  "system": "http://terminology.hl7.org/CodeSystem/v2-0203"
                }
              ]
            },
            "value": "MR"
          },
          "reference": "urn:uuid:e29fe7fa-9a80-49e5-a620-b3a30c2ea23a"
        },
        "valueCodeableConcept": {
          "coding": [
            {
              "code": "LA9633-4",
              "display": "Present",
              "system": "http://loinc.org"
            }
          ]
        }
      }
    },
    {
      "fullUrl": "urn:uuid:5cadafc8-aa05-4133-b314-ee73b1a42b44",
      "resource": {
        "resourceType": "Observation",
        "code": {
          "coding": [
            {
              "code": "81259-4",
              "display": "Probable associated phenotype",
              "system": "http://loinc.org"
            }
          ]
        },
        "identifier": [
          {
            "assigner": {
              "identifier": {
                "system": "https://fhir.nhs.uk/Id/ods-organization-code",
                "value": "699X0"
              }
            },
            "system": "https://fhir.nwgenomics.nhs.uk/iGene/ReportIdentifier",
            "type": {
              "coding": [
                {
                  "code": "FILL",
                  "system": "http://terminology.hl7.org/CodeSystem/v2-0203"
                }
              ]
            },
            "value": "Gen825750"
          }
        ],
        "performer": [
          {
            "identifier": {
              "system": "https://fhir.nhs.uk/Id/ods-organization-code",
              "value": "699X0"
            },
            "type": "Organization"
          }
        ],
        "status": "final",
        "subject": {
          "identifier": {
            "system": "https://fhir.nhs.uk/Id/nhs-number",
            "type": {
              "coding": [
                {
                  "code": "NH",
                  "system": "http://terminology.hl7.org/CodeSystem/v2-0203"
                }
              ]
            },
            "value": "MR"
          },
          "reference": "urn:uuid:e29fe7fa-9a80-49e5-a620-b3a30c2ea23a"
        },
        "valueCodeableConcept": {
          "coding": [
            {
              "code": "CN218420",
              "display": "Developmental delay AND/OR other significant developmental or morphological phenotypes",
              "system": "MedGen-Dis"
            }
          ]
        }
      }
    },
    {
      "fullUrl": "urn:uuid:f7b69ffe-58ce-4de3-ae75-7d9b0f93efa0",
      "resource": {
        "resourceType": "Observation",
        "code": {
          "coding": [
            {
              "code": "53034-5",
              "display": "Allelic state",
              "system": "http://loinc.org"
            }
          ]
        },
        "identifier": [
          {
            "assigner": {
              "identifier": {
                "system": "https://fhir.nhs.uk/Id/ods-organization-code",
                "value": "699X0"
              }
            },
            "system": "https://fhir.nwgenomics.nhs.uk/iGene/ReportIdentifier",
            "type": {
              "coding": [
                {
                  "code": "FILL",
                  "system": "http://terminology.hl7.org/CodeSystem/v2-0203"
                }
              ]
            },
            "value": "Gen825750"
          }
        ],
        "performer": [
          {
            "identifier": {
              "system": "https://fhir.nhs.uk/Id/ods-organization-code",
              "value": "699X0"
            },
            "type": "Organization"
          }
        ],
        "status": "final",
        "subject": {
          "identifier": {
            "system": "https://fhir.nhs.uk/Id/nhs-number",
            "type": {
              "coding": [
                {
                  "code": "NH",
                  "system": "http://terminology.hl7.org/CodeSystem/v2-0203"
                }
              ]
            },
            "value": "MR"
          },
          "reference": "urn:uuid:e29fe7fa-9a80-49e5-a620-b3a30c2ea23a"
        },
        "valueCodeableConcept": {
          "coding": [
            {
              "code": "LA6706-1",
              "display": "Heterozygous",
              "system": "http://loinc.org"
            }
          ]
        }
      }
    },
    {
      "fullUrl": "urn:uuid:a8577e7d-a354-48b5-91d3-9c0c80ba9a29",
      "resource": {
        "resourceType": "Observation",
        "code": {
          "coding": [
            {
              "code": "83005-9",
              "display": "Variant Category",
              "system": "http://loinc.org"
            }
          ]
        },
        "identifier": [
          {
            "assigner": {
              "identifier": {
                "system": "https://fhir.nhs.uk/Id/ods-organization-code",
                "value": "699X0"
              }
            },
            "system": "https://fhir.nwgenomics.nhs.uk/iGene/ReportIdentifier",
            "type": {
              "coding": [
                {
                  "code": "FILL",
                  "system": "http://terminology.hl7.org/CodeSystem/v2-0203"
                }
              ]
            },
            "value": "Gen825750"
          }
        ],
        "performer": [
          {
            "identifier": {
              "system": "https://fhir.nhs.uk/Id/ods-organization-code",
              "value": "699X0"
            },
            "type": "Organization"
          }
        ],
        "status": "final",
        "subject": {
          "identifier": {
            "system": "https://fhir.nhs.uk/Id/nhs-number",
            "type": {
              "coding": [
                {
                  "code": "NH",
                  "system": "http://terminology.hl7.org/CodeSystem/v2-0203"
                }
              ]
            },
            "value": "MR"
          },
          "reference": "urn:uuid:e29fe7fa-9a80-49e5-a620-b3a30c2ea23a"
        },
        "valueCodeableConcept": {
          "coding": [
            {
              "code": "LA26801-3",
              "display": "Simple Variant",
              "system": "http://loinc.org"
            }
          ]
        }
      }
    },
    {
      "fullUrl": "urn:uuid:6d671740-29d7-45de-b83f-445ab5289151",
      "resource": {
        "resourceType": "Observation",
        "code": {
          "coding": [
            {
              "code": "81252-9",
              "display": "Discrete genetic variant",
              "system": "http://loinc.org"
            }
          ]
        },
        "identifier": [
          {
            "assigner": {
              "identifier": {
                "system": "https://fhir.nhs.uk/Id/ods-organization-code",
                "value": "699X0"
              }
            },
            "system": "https://fhir.nwgenomics.nhs.uk/iGene/ReportIdentifier",
            "type": {
              "coding": [
                {
                  "code": "FILL",
                  "system": "http://terminology.hl7.org/CodeSystem/v2-0203"
                }
              ]
            },
            "value": "Gen825750"
          }
        ],
        "performer": [
          {
            "identifier": {
              "system": "https://fhir.nhs.uk/Id/ods-organization-code",
              "value": "699X0"
            },
            "type": "Organization"
          }
        ],
        "status": "final",
        "subject": {
          "identifier": {
            "system": "https://fhir.nhs.uk/Id/nhs-number",
            "type": {
              "coding": [
                {
                  "code": "NH",
                  "system": "http://terminology.hl7.org/CodeSystem/v2-0203"
                }
              ]
            },
            "value": "MR"
          },
          "reference": "urn:uuid:e29fe7fa-9a80-49e5-a620-b3a30c2ea23a"
        },
        "valueCodeableConcept": {
          "coding": [
            {
              "code": "130039",
              "display": "NM_145239.2(PRRT2):c.67G>A(p.Glu23Lys)",
              "system": "http://www.ncbi.nlm.nih.gov/clinvar"
            }
          ]
        }
      }
    },
    {
      "fullUrl": "urn:uuid:4ae4a6aa-1a67-43f3-8c56-83c14afb0d90",
      "resource": {
        "resourceType": "Observation",
        "code": {
          "coding": [
            {
              "code": "48018-6",
              "display": "Gene studied",
              "system": "http://loinc.org"
            }
          ]
        },
        "identifier": [
          {
            "assigner": {
              "identifier": {
                "system": "https://fhir.nhs.uk/Id/ods-organization-code",
                "value": "699X0"
              }
            },
            "system": "https://fhir.nwgenomics.nhs.uk/iGene/ReportIdentifier",
            "type": {
              "coding": [
                {
                  "code": "FILL",
                  "system": "http://terminology.hl7.org/CodeSystem/v2-0203"
                }
              ]
            },
            "value": "Gen825750"
          }
        ],
        "performer": [
          {
            "identifier": {
              "system": "https://fhir.nhs.uk/Id/ods-organization-code",
              "value": "699X0"
            },
            "type": "Organization"
          }
        ],
        "status": "final",
        "subject": {
          "identifier": {
            "system": "https://fhir.nhs.uk/Id/nhs-number",
            "type": {
              "coding": [
                {
                  "code": "NH",
                  "system": "http://terminology.hl7.org/CodeSystem/v2-0203"
                }
              ]
            },
            "value": "MR"
          },
          "reference": "urn:uuid:e29fe7fa-9a80-49e5-a620-b3a30c2ea23a"
        },
        "valueCodeableConcept": {
          "coding": [
            {
              "code": "30500",
              "display": "PRRT2",
              "system": "http://www.genenames.org"
            }
          ]
        }
      }
    },
    {
      "fullUrl": "urn:uuid:b470dd3b-b60c-4ebf-a6c1-7d03a05d10e6",
      "resource": {
        "resourceType": "Observation",
        "code": {
          "coding": [
            {
              "code": "51958-7",
              "display": "Transcript RefSeq ID",
              "system": "http://loinc.org"
            }
          ]
        },
        "identifier": [
          {
            "assigner": {
              "identifier": {
                "system": "https://fhir.nhs.uk/Id/ods-organization-code",
                "value": "699X0"
              }
            },
            "system": "https://fhir.nwgenomics.nhs.uk/iGene/ReportIdentifier",
            "type": {
              "coding": [
                {
                  "code": "FILL",
                  "system": "http://terminology.hl7.org/CodeSystem/v2-0203"
                }
              ]
            },
            "value": "Gen825750"
          }
        ],
        "performer": [
          {
            "identifier": {
              "system": "https://fhir.nhs.uk/Id/ods-organization-code",
              "value": "699X0"
            },
            "type": "Organization"
          }
        ],
        "status": "final",
        "subject": {
          "identifier": {
            "system": "https://fhir.nhs.uk/Id/nhs-number",
            "type": {
              "coding": [
                {
                  "code": "NH",
                  "system": "http://terminology.hl7.org/CodeSystem/v2-0203"
                }
              ]
            },
            "value": "MR"
          },
          "reference": "urn:uuid:e29fe7fa-9a80-49e5-a620-b3a30c2ea23a"
        },
        "valueCodeableConcept": {
          "coding": [
            {
              "code": "NM_145239.2",
              "display": "NM_145239.2",
              "system": "http://www.ncbi.nlm.nih.gov/refseq"
            }
          ]
        }
      }
    },
    {
      "fullUrl": "urn:uuid:d29c1a6a-fac2-4dfd-94dd-066375ad6e08",
      "resource": {
        "resourceType": "Observation",
        "code": {
          "coding": [
            {
              "code": "41103-3",
              "display": "Transcript DNA Change (cHGVS)",
              "system": "http://loinc.org"
            }
          ]
        },
        "identifier": [
          {
            "assigner": {
              "identifier": {
                "system": "https://fhir.nhs.uk/Id/ods-organization-code",
                "value": "699X0"
              }
            },
            "system": "https://fhir.nwgenomics.nhs.uk/iGene/ReportIdentifier",
            "type": {
              "coding": [
                {
                  "code": "FILL",
                  "system": "http://terminology.hl7.org/CodeSystem/v2-0203"
                }
              ]
            },
            "value": "Gen825750"
          }
        ],
        "performer": [
          {
            "identifier": {
              "system": "https://fhir.nhs.uk/Id/ods-organization-code",
              "value": "699X0"
            },
            "type": "Organization"
          }
        ],
        "status": "final",
        "subject": {
          "identifier": {
            "system": "https://fhir.nhs.uk/Id/nhs-number",
            "type": {
              "coding": [
                {
                  "code": "NH",
                  "system": "http://terminology.hl7.org/CodeSystem/v2-0203"
                }
              ]
            },
            "value": "MR"
          },
          "reference": "urn:uuid:e29fe7fa-9a80-49e5-a620-b3a30c2ea23a"
        },
        "valueCodeableConcept": {
          "coding": [
            {
              "code": "c.67G>A",
              "display": "c.67G>A",
              "system": "http://varnomen.hgvs.org"
            }
          ]
        }
      }
    },
    {
      "fullUrl": "urn:uuid:4affd9aa-1b6f-4333-a71f-4be05f9cfdc4",
      "resource": {
        "resourceType": "Observation",
        "code": {
          "coding": [
            {
              "code": "48005-3",
              "display": "Amino acid change p.HGVS",
              "system": "http://loinc.org"
            }
          ]
        },
        "identifier": [
          {
            "assigner": {
              "identifier": {
                "system": "https://fhir.nhs.uk/Id/ods-organization-code",
                "value": "699X0"
              }
            },
            "system": "https://fhir.nwgenomics.nhs.uk/iGene/ReportIdentifier",
            "type": {
              "coding": [
                {
                  "code": "FILL",
                  "system": "http://terminology.hl7.org/CodeSystem/v2-0203"
                }
              ]
            },
            "value": "Gen825750"
          }
        ],
        "performer": [
          {
            "identifier": {
              "system": "https://fhir.nhs.uk/Id/ods-organization-code",
              "value": "699X0"
            },
            "type": "Organization"
          }
        ],
        "status": "final",
        "subject": {
          "identifier": {
            "system": "https://fhir.nhs.uk/Id/nhs-number",
            "type": {
              "coding": [
                {
                  "code": "NH",
                  "system": "http://terminology.hl7.org/CodeSystem/v2-0203"
                }
              ]
            },
            "value": "MR"
          },
          "reference": "urn:uuid:e29fe7fa-9a80-49e5-a620-b3a30c2ea23a"
        },
        "valueCodeableConcept": {
          "coding": [
            {
              "code": "p.Glu23Lys",
              "display": "p.Glu23Lys",
              "system": "http://varnomen.hgvs.org"
            }
          ]
        }
      }
    },
    {
      "fullUrl": "urn:uuid:15d30284-cfc3-4003-b397-8a9c03c5d215",
      "resource": {
        "resourceType": "Observation",
        "code": {
          "coding": [
            {
              "code": "48019-4",
              "display": "DNA change type",
              "system": "http://loinc.org"
            }
          ]
        },
        "identifier": [
          {
            "assigner": {
              "identifier": {
                "system": "https://fhir.nhs.uk/Id/ods-organization-code",
                "value": "699X0"
              }
            },
            "system": "https://fhir.nwgenomics.nhs.uk/iGene/ReportIdentifier",
            "type": {
              "coding": [
                {
                  "code": "FILL",
                  "system": "http://terminology.hl7.org/CodeSystem/v2-0203"
                }
              ]
            },
            "value": "Gen825750"
          }
        ],
        "performer": [
          {
            "identifier": {
              "system": "https://fhir.nhs.uk/Id/ods-organization-code",
              "value": "699X0"
            },
            "type": "Organization"
          }
        ],
        "status": "final",
        "subject": {
          "identifier": {
            "system": "https://fhir.nhs.uk/Id/nhs-number",
            "type": {
              "coding": [
                {
                  "code": "NH",
                  "system": "http://terminology.hl7.org/CodeSystem/v2-0203"
                }
              ]
            },
            "value": "MR"
          },
          "reference": "urn:uuid:e29fe7fa-9a80-49e5-a620-b3a30c2ea23a"
        },
        "valueCodeableConcept": {
          "coding": [
            {
              "code": "LA6690-7",
              "display": "Substitution",
              "system": "http://loinc.org"
            }
          ]
        }
      }
    },
    {
      "fullUrl": "urn:uuid:9c606989-1520-443e-b0ea-7bd0ca1b6460",
      "resource": {
        "resourceType": "Observation",
        "code": {
          "coding": [
            {
              "code": "81290-9",
              "display": "Genomic DNA change (gHGVS)",
              "system": "http://loinc.org"
            }
          ]
        },
        "identifier": [
          {
            "assigner": {
              "identifier": {
                "system": "https://fhir.nhs.uk/Id/ods-organization-code",
                "value": "699X0"
              }
            },
            "system": "https://fhir.nwgenomics.nhs.uk/iGene/ReportIdentifier",
            "type": {
              "coding": [
                {
                  "code": "FILL",
                  "system": "http://terminology.hl7.org/CodeSystem/v2-0203"
                }
              ]
            },
            "value": "Gen825750"
          }
        ],
        "performer": [
          {
            "identifier": {
              "system": "https://fhir.nhs.uk/Id/ods-organization-code",
              "value": "699X0"
            },
            "type": "Organization"
          }
        ],
        "status": "final",
        "subject": {
          "identifier": {
            "system": "https://fhir.nhs.uk/Id/nhs-number",
            "type": {
              "coding": [
                {
                  "code": "NH",
                  "system": "http://terminology.hl7.org/CodeSystem/v2-0203"
                }
              ]
            },
            "value": "MR"
          },
          "reference": "urn:uuid:e29fe7fa-9a80-49e5-a620-b3a30c2ea23a"
        },
        "valueCodeableConcept": {
          "coding": [
            {
              "code": "NC_000016.9",
              "display": "NC_000016.9",
              "system": "http://www.ncbi.nlm.nih.gov/refseq"
            }
          ]
        }
      }
    },
    {
      "fullUrl": "urn:uuid:f0086a91-372f-417a-9bc1-98e077ab442b",
      "resource": {
        "resourceType": "Observation",
        "code": {
          "coding": [
            {
              "code": "69547-8",
              "display": "Genomic ref allele",
              "system": "http://loinc.org"
            }
          ]
        },
        "identifier": [
          {
            "assigner": {
              "identifier": {
                "system": "https://fhir.nhs.uk/Id/ods-organization-code",
                "value": "699X0"
              }
            },
            "system": "https://fhir.nwgenomics.nhs.uk/iGene/ReportIdentifier",
            "type": {
              "coding": [
                {
                  "code": "FILL",
                  "system": "http://terminology.hl7.org/CodeSystem/v2-0203"
                }
              ]
            },
            "value": "Gen825750"
          }
        ],
        "performer": [
          {
            "identifier": {
              "system": "https://fhir.nhs.uk/Id/ods-organization-code",
              "value": "699X0"
            },
            "type": "Organization"
          }
        ],
        "status": "final",
        "subject": {
          "identifier": {
            "system": "https://fhir.nhs.uk/Id/nhs-number",
            "type": {
              "coding": [
                {
                  "code": "NH",
                  "system": "http://terminology.hl7.org/CodeSystem/v2-0203"
                }
              ]
            },
            "value": "MR"
          },
          "reference": "urn:uuid:e29fe7fa-9a80-49e5-a620-b3a30c2ea23a"
        },
        "valueString": "G"
      }
    },
    {
      "fullUrl": "urn:uuid:d0758b9d-86da-43ae-9571-38d8891cf610",
      "resource": {
        "resourceType": "Observation",
        "code": {
          "coding": [
            {
              "code": "81254-5",
              "display": "Genomic allele location",
              "system": "http://loinc.org"
            }
          ]
        },
        "identifier": [
          {
            "assigner": {
              "identifier": {
                "system": "https://fhir.nhs.uk/Id/ods-organization-code",
                "value": "699X0"
              }
            },
            "system": "https://fhir.nwgenomics.nhs.uk/iGene/ReportIdentifier",
            "type": {
              "coding": [
                {
                  "code": "FILL",
                  "system": "http://terminology.hl7.org/CodeSystem/v2-0203"
                }
              ]
            },
            "value": "Gen825750"
          }
        ],
        "performer": [
          {
            "identifier": {
              "system": "https://fhir.nhs.uk/Id/ods-organization-code",
              "value": "699X0"
            },
            "type": "Organization"
          }
        ],
        "status": "final",
        "subject": {
          "identifier": {
            "system": "https://fhir.nhs.uk/Id/nhs-number",
            "type": {
              "coding": [
                {
                  "code": "NH",
                  "system": "http://terminology.hl7.org/CodeSystem/v2-0203"
                }
              ]
            },
            "value": "MR"
          },
          "reference": "urn:uuid:e29fe7fa-9a80-49e5-a620-b3a30c2ea23a"
        }
      }
    },
    {
      "fullUrl": "urn:uuid:b587f2e7-bb3b-4b9a-b574-762dc5512da8",
      "resource": {
        "resourceType": "Observation",
        "code": {
          "coding": [
            {
              "code": "69551-0",
              "display": "Genomic alt allele",
              "system": "http://loinc.org"
            }
          ]
        },
        "identifier": [
          {
            "assigner": {
              "identifier": {
                "system": "https://fhir.nhs.uk/Id/ods-organization-code",
                "value": "699X0"
              }
            },
            "system": "https://fhir.nwgenomics.nhs.uk/iGene/ReportIdentifier",
            "type": {
              "coding": [
                {
                  "code": "FILL",
                  "system": "http://terminology.hl7.org/CodeSystem/v2-0203"
                }
              ]
            },
            "value": "Gen825750"
          }
        ],
        "performer": [
          {
            "identifier": {
              "system": "https://fhir.nhs.uk/Id/ods-organization-code",
              "value": "699X0"
            },
            "type": "Organization"
          }
        ],
        "status": "final",
        "subject": {
          "identifier": {
            "system": "https://fhir.nhs.uk/Id/nhs-number",
            "type": {
              "coding": [
                {
                  "code": "NH",
                  "system": "http://terminology.hl7.org/CodeSystem/v2-0203"
                }
              ]
            },
            "value": "MR"
          },
          "reference": "urn:uuid:e29fe7fa-9a80-49e5-a620-b3a30c2ea23a"
        },
        "valueString": "A"
      }
    },
    {
      "fullUrl": "urn:uuid:2be6e572-65dc-408e-b4a9-49cbd693fbeb",
      "resource": {
        "resourceType": "Observation",
        "code": {
          "coding": [
            {
              "code": "81255-2",
              "display": "dbSNP ID",
              "system": "http://loinc.org"
            }
          ]
        },
        "identifier": [
          {
            "assigner": {
              "identifier": {
                "system": "https://fhir.nhs.uk/Id/ods-organization-code",
                "value": "699X0"
              }
            },
            "system": "https://fhir.nwgenomics.nhs.uk/iGene/ReportIdentifier",
            "type": {
              "coding": [
                {
                  "code": "FILL",
                  "system": "http://terminology.hl7.org/CodeSystem/v2-0203"
                }
              ]
            },
            "value": "Gen825750"
          }
        ],
        "performer": [
          {
            "identifier": {
              "system": "https://fhir.nhs.uk/Id/ods-organization-code",
              "value": "699X0"
            },
            "type": "Organization"
          }
        ],
        "status": "final",
        "subject": {
          "identifier": {
            "system": "https://fhir.nhs.uk/Id/nhs-number",
            "type": {
              "coding": [
                {
                  "code": "NH",
                  "system": "http://terminology.hl7.org/CodeSystem/v2-0203"
                }
              ]
            },
            "value": "MR"
          },
          "reference": "urn:uuid:e29fe7fa-9a80-49e5-a620-b3a30c2ea23a"
        },
        "valueCodeableConcept": {
          "coding": [
            {
              "code": "rs140383655",
              "display": "rs140383655",
              "system": "http://www.ncbi.nlm.nih.gov/projects/SNP"
            }
          ]
        }
      }
    },
    {
      "fullUrl": "urn:uuid:63250d65-ec64-41d0-95dd-62916727c547",
      "resource": {
        "resourceType": "Observation",
        "code": {
          "coding": [
            {
              "code": "48001-2",
              "display": "Cytogenetic (chromosome) location",
              "system": "http://loinc.org"
            }
          ]
        },
        "identifier": [
          {
            "assigner": {
              "identifier": {
                "system": "https://fhir.nhs.uk/Id/ods-organization-code",
                "value": "699X0"
              }
            },
            "system": "https://fhir.nwgenomics.nhs.uk/iGene/ReportIdentifier",
            "type": {
              "coding": [
                {
                  "code": "FILL",
                  "system": "http://terminology.hl7.org/CodeSystem/v2-0203"
                }
              ]
            },
            "value": "Gen825750"
          }
        ],
        "performer": [
          {
            "identifier": {
              "system": "https://fhir.nhs.uk/Id/ods-organization-code",
              "value": "699X0"
            },
            "type": "Organization"
          }
        ],
        "status": "final",
        "subject": {
          "identifier": {
            "system": "https://fhir.nhs.uk/Id/nhs-number",
            "type": {
              "coding": [
                {
                  "code": "NH",
                  "system": "http://terminology.hl7.org/CodeSystem/v2-0203"
                }
              ]
            },
            "value": "MR"
          },
          "reference": "urn:uuid:e29fe7fa-9a80-49e5-a620-b3a30c2ea23a"
        },
        "valueCodeableConcept": {
          "coding": [
            {
              "code": "16p11.2",
              "display": "16p11.2",
              "system": "Chrom-Loc"
            }
          ]
        }
      }
    },
    {
      "fullUrl": "urn:uuid:f7b1b0eb-86b5-4cea-a26c-09650340feca",
      "resource": {
        "resourceType": "Observation",
        "code": {
          "coding": [
            {
              "code": "48002-0",
              "display": "Genomic source class",
              "system": "http://loinc.org"
            }
          ]
        },
        "identifier": [
          {
            "assigner": {
              "identifier": {
                "system": "https://fhir.nhs.uk/Id/ods-organization-code",
                "value": "699X0"
              }
            },
            "system": "https://fhir.nwgenomics.nhs.uk/iGene/ReportIdentifier",
            "type": {
              "coding": [
                {
                  "code": "FILL",
                  "system": "http://terminology.hl7.org/CodeSystem/v2-0203"
                }
              ]
            },
            "value": "Gen825750"
          }
        ],
        "performer": [
          {
            "identifier": {
              "system": "https://fhir.nhs.uk/Id/ods-organization-code",
              "value": "699X0"
            },
            "type": "Organization"
          }
        ],
        "status": "final",
        "subject": {
          "identifier": {
            "system": "https://fhir.nhs.uk/Id/nhs-number",
            "type": {
              "coding": [
                {
                  "code": "NH",
                  "system": "http://terminology.hl7.org/CodeSystem/v2-0203"
                }
              ]
            },
            "value": "MR"
          },
          "reference": "urn:uuid:e29fe7fa-9a80-49e5-a620-b3a30c2ea23a"
        },
        "valueCodeableConcept": {
          "coding": [
            {
              "code": "LA6683-2",
              "display": "Germline",
              "system": "http://loinc.org"
            }
          ]
        }
      }
    },
    {
      "fullUrl": "urn:uuid:2cbda023-1801-4f54-acdd-f89b2d048027",
      "resource": {
        "resourceType": "Observation",
        "code": {
          "coding": [
            {
              "code": "53037-8",
              "display": "Genetic variation clinical significance",
              "system": "http://loinc.org"
            }
          ]
        },
        "identifier": [
          {
            "assigner": {
              "identifier": {
                "system": "https://fhir.nhs.uk/Id/ods-organization-code",
                "value": "699X0"
              }
            },
            "system": "https://fhir.nwgenomics.nhs.uk/iGene/ReportIdentifier",
            "type": {
              "coding": [
                {
                  "code": "FILL",
                  "system": "http://terminology.hl7.org/CodeSystem/v2-0203"
                }
              ]
            },
            "value": "Gen825750"
          }
        ],
        "performer": [
          {
            "identifier": {
              "system": "https://fhir.nhs.uk/Id/ods-organization-code",
              "value": "699X0"
            },
            "type": "Organization"
          }
        ],
        "status": "final",
        "subject": {
          "identifier": {
            "system": "https://fhir.nhs.uk/Id/nhs-number",
            "type": {
              "coding": [
                {
                  "code": "NH",
                  "system": "http://terminology.hl7.org/CodeSystem/v2-0203"
                }
              ]
            },
            "value": "MR"
          },
          "reference": "urn:uuid:e29fe7fa-9a80-49e5-a620-b3a30c2ea23a"
        },
        "valueCodeableConcept": {
          "coding": [
            {
              "code": "LA6671-7",
              "display": "Uncertain Significance",
              "system": "http://loinc.org"
            }
          ]
        }
      }
    },
    {
      "fullUrl": "urn:uuid:66983987-ae68-4ce3-bebb-b614bad6a382",
      "resource": {
        "resourceType": "Observation",
        "code": {
          "coding": [
            {
              "code": "69548-6",
              "display": "Genomic variant assessment",
              "system": "http://loinc.org"
            }
          ]
        },
        "identifier": [
          {
            "assigner": {
              "identifier": {
                "system": "https://fhir.nhs.uk/Id/ods-organization-code",
                "value": "699X0"
              }
            },
            "system": "https://fhir.nwgenomics.nhs.uk/iGene/ReportIdentifier",
            "type": {
              "coding": [
                {
                  "code": "FILL",
                  "system": "http://terminology.hl7.org/CodeSystem/v2-0203"
                }
              ]
            },
            "value": "Gen825750"
          }
        ],
        "performer": [
          {
            "identifier": {
              "system": "https://fhir.nhs.uk/Id/ods-organization-code",
              "value": "699X0"
            },
            "type": "Organization"
          }
        ],
        "status": "final",
        "subject": {
          "identifier": {
            "system": "https://fhir.nhs.uk/Id/nhs-number",
            "type": {
              "coding": [
                {
                  "code": "NH",
                  "system": "http://terminology.hl7.org/CodeSystem/v2-0203"
                }
              ]
            },
            "value": "MR"
          },
          "reference": "urn:uuid:e29fe7fa-9a80-49e5-a620-b3a30c2ea23a"
        },
        "valueCodeableConcept": {
          "coding": [
            {
              "code": "LA9633-4",
              "display": "Present",
              "system": "http://loinc.org"
            }
          ]
        }
      }
    },
    {
      "fullUrl": "urn:uuid:d29cfa48-14b9-4fc7-914d-75c6fcec3f43",
      "resource": {
        "resourceType": "Observation",
        "code": {
          "coding": [
            {
              "code": "81259-4",
              "display": "Probable associated phenotype",
              "system": "http://loinc.org"
            }
          ]
        },
        "identifier": [
          {
            "assigner": {
              "identifier": {
                "system": "https://fhir.nhs.uk/Id/ods-organization-code",
                "value": "699X0"
              }
            },
            "system": "https://fhir.nwgenomics.nhs.uk/iGene/ReportIdentifier",
            "type": {
              "coding": [
                {
                  "code": "FILL",
                  "system": "http://terminology.hl7.org/CodeSystem/v2-0203"
                }
              ]
            },
            "value": "Gen825750"
          }
        ],
        "performer": [
          {
            "identifier": {
              "system": "https://fhir.nhs.uk/Id/ods-organization-code",
              "value": "699X0"
            },
            "type": "Organization"
          }
        ],
        "status": "final",
        "subject": {
          "identifier": {
            "system": "https://fhir.nhs.uk/Id/nhs-number",
            "type": {
              "coding": [
                {
                  "code": "NH",
                  "system": "http://terminology.hl7.org/CodeSystem/v2-0203"
                }
              ]
            },
            "value": "MR"
          },
          "reference": "urn:uuid:e29fe7fa-9a80-49e5-a620-b3a30c2ea23a"
        },
        "valueCodeableConcept": {
          "coding": [
            {
              "code": "C1510586",
              "display": "Autism spectrum disorders",
              "system": "MedGen-Dis"
            }
          ]
        }
      }
    },
    {
      "fullUrl": "urn:uuid:0261ffba-52e3-4881-9a38-df3181755425",
      "resource": {
        "resourceType": "Observation",
        "code": {
          "coding": [
            {
              "code": "53034-5",
              "display": "Allelic state",
              "system": "http://loinc.org"
            }
          ]
        },
        "identifier": [
          {
            "assigner": {
              "identifier": {
                "system": "https://fhir.nhs.uk/Id/ods-organization-code",
                "value": "699X0"
              }
            },
            "system": "https://fhir.nwgenomics.nhs.uk/iGene/ReportIdentifier",
            "type": {
              "coding": [
                {
                  "code": "FILL",
                  "system": "http://terminology.hl7.org/CodeSystem/v2-0203"
                }
              ]
            },
            "value": "Gen825750"
          }
        ],
        "performer": [
          {
            "identifier": {
              "system": "https://fhir.nhs.uk/Id/ods-organization-code",
              "value": "699X0"
            },
            "type": "Organization"
          }
        ],
        "status": "final",
        "subject": {
          "identifier": {
            "system": "https://fhir.nhs.uk/Id/nhs-number",
            "type": {
              "coding": [
                {
                  "code": "NH",
                  "system": "http://terminology.hl7.org/CodeSystem/v2-0203"
                }
              ]
            },
            "value": "MR"
          },
          "reference": "urn:uuid:e29fe7fa-9a80-49e5-a620-b3a30c2ea23a"
        },
        "valueCodeableConcept": {
          "coding": [
            {
              "code": "LA6706-1",
              "display": "Heterozygous",
              "system": "http://loinc.org"
            }
          ]
        }
      }
    },
    {
      "fullUrl": "urn:uuid:3ba46568-a3b4-40b1-ad2d-4d1863b7b50d",
      "resource": {
        "resourceType": "Observation",
        "code": {
          "coding": [
            {
              "code": "83005-9",
              "display": "Variant Category",
              "system": "http://loinc.org"
            }
          ]
        },
        "identifier": [
          {
            "assigner": {
              "identifier": {
                "system": "https://fhir.nhs.uk/Id/ods-organization-code",
                "value": "699X0"
              }
            },
            "system": "https://fhir.nwgenomics.nhs.uk/iGene/ReportIdentifier",
            "type": {
              "coding": [
                {
                  "code": "FILL",
                  "system": "http://terminology.hl7.org/CodeSystem/v2-0203"
                }
              ]
            },
            "value": "Gen825750"
          }
        ],
        "performer": [
          {
            "identifier": {
              "system": "https://fhir.nhs.uk/Id/ods-organization-code",
              "value": "699X0"
            },
            "type": "Organization"
          }
        ],
        "status": "final",
        "subject": {
          "identifier": {
            "system": "https://fhir.nhs.uk/Id/nhs-number",
            "type": {
              "coding": [
                {
                  "code": "NH",
                  "system": "http://terminology.hl7.org/CodeSystem/v2-0203"
                }
              ]
            },
            "value": "MR"
          },
          "reference": "urn:uuid:e29fe7fa-9a80-49e5-a620-b3a30c2ea23a"
        },
        "valueCodeableConcept": {
          "coding": [
            {
              "code": "LA26801-3",
              "display": "Simple Variant",
              "system": "http://loinc.org"
            }
          ]
        }
      }
    },
    {
      "fullUrl": "urn:uuid:0b219069-5b78-4ce3-9827-d5438757c52d",
      "resource": {
        "resourceType": "Observation",
        "code": {
          "coding": [
            {
              "code": "81252-9",
              "display": "Discrete genetic variant",
              "system": "http://loinc.org"
            }
          ]
        },
        "identifier": [
          {
            "assigner": {
              "identifier": {
                "system": "https://fhir.nhs.uk/Id/ods-organization-code",
                "value": "699X0"
              }
            },
            "system": "https://fhir.nwgenomics.nhs.uk/iGene/ReportIdentifier",
            "type": {
              "coding": [
                {
                  "code": "FILL",
                  "system": "http://terminology.hl7.org/CodeSystem/v2-0203"
                }
              ]
            },
            "value": "Gen825750"
          }
        ],
        "performer": [
          {
            "identifier": {
              "system": "https://fhir.nhs.uk/Id/ods-organization-code",
              "value": "699X0"
            },
            "type": "Organization"
          }
        ],
        "status": "final",
        "subject": {
          "identifier": {
            "system": "https://fhir.nhs.uk/Id/nhs-number",
            "type": {
              "coding": [
                {
                  "code": "NH",
                  "system": "http://terminology.hl7.org/CodeSystem/v2-0203"
                }
              ]
            },
            "value": "MR"
          },
          "reference": "urn:uuid:e29fe7fa-9a80-49e5-a620-b3a30c2ea23a"
        },
        "valueCodeableConcept": {
          "coding": [
            {
              "code": "205776",
              "display": "NM_001193466.1(KANSL1):c.727C>A(p.Gln243Lys)",
              "system": "http://www.ncbi.nlm.nih.gov/clinvar"
            }
          ]
        }
      }
    },
    {
      "fullUrl": "urn:uuid:14241ad1-a8c1-455c-a4be-c689fff60aa8",
      "resource": {
        "resourceType": "Observation",
        "code": {
          "coding": [
            {
              "code": "48018-6",
              "display": "Gene studied",
              "system": "http://loinc.org"
            }
          ]
        },
        "identifier": [
          {
            "assigner": {
              "identifier": {
                "system": "https://fhir.nhs.uk/Id/ods-organization-code",
                "value": "699X0"
              }
            },
            "system": "https://fhir.nwgenomics.nhs.uk/iGene/ReportIdentifier",
            "type": {
              "coding": [
                {
                  "code": "FILL",
                  "system": "http://terminology.hl7.org/CodeSystem/v2-0203"
                }
              ]
            },
            "value": "Gen825750"
          }
        ],
        "performer": [
          {
            "identifier": {
              "system": "https://fhir.nhs.uk/Id/ods-organization-code",
              "value": "699X0"
            },
            "type": "Organization"
          }
        ],
        "status": "final",
        "subject": {
          "identifier": {
            "system": "https://fhir.nhs.uk/Id/nhs-number",
            "type": {
              "coding": [
                {
                  "code": "NH",
                  "system": "http://terminology.hl7.org/CodeSystem/v2-0203"
                }
              ]
            },
            "value": "MR"
          },
          "reference": "urn:uuid:e29fe7fa-9a80-49e5-a620-b3a30c2ea23a"
        },
        "valueCodeableConcept": {
          "coding": [
            {
              "code": "24565",
              "display": "KANSL1",
              "system": "http://www.genenames.org"
            }
          ]
        }
      }
    },
    {
      "fullUrl": "urn:uuid:daae1fe5-e3d5-4116-bdd0-efad5cdaae1e",
      "resource": {
        "resourceType": "Observation",
        "code": {
          "coding": [
            {
              "code": "51958-7",
              "display": "Transcript RefSeq ID",
              "system": "http://loinc.org"
            }
          ]
        },
        "identifier": [
          {
            "assigner": {
              "identifier": {
                "system": "https://fhir.nhs.uk/Id/ods-organization-code",
                "value": "699X0"
              }
            },
            "system": "https://fhir.nwgenomics.nhs.uk/iGene/ReportIdentifier",
            "type": {
              "coding": [
                {
                  "code": "FILL",
                  "system": "http://terminology.hl7.org/CodeSystem/v2-0203"
                }
              ]
            },
            "value": "Gen825750"
          }
        ],
        "performer": [
          {
            "identifier": {
              "system": "https://fhir.nhs.uk/Id/ods-organization-code",
              "value": "699X0"
            },
            "type": "Organization"
          }
        ],
        "status": "final",
        "subject": {
          "identifier": {
            "system": "https://fhir.nhs.uk/Id/nhs-number",
            "type": {
              "coding": [
                {
                  "code": "NH",
                  "system": "http://terminology.hl7.org/CodeSystem/v2-0203"
                }
              ]
            },
            "value": "MR"
          },
          "reference": "urn:uuid:e29fe7fa-9a80-49e5-a620-b3a30c2ea23a"
        },
        "valueCodeableConcept": {
          "coding": [
            {
              "code": "NM_001193466.1",
              "display": "NM_001193466.1",
              "system": "http://www.ncbi.nlm.nih.gov/refseq"
            }
          ]
        }
      }
    },
    {
      "fullUrl": "urn:uuid:8cb0cdb9-add8-432a-84d6-cce0abc664e9",
      "resource": {
        "resourceType": "Observation",
        "code": {
          "coding": [
            {
              "code": "41103-3",
              "display": "Transcript DNA Change(cHGVS)",
              "system": "http://loinc.org"
            }
          ]
        },
        "identifier": [
          {
            "assigner": {
              "identifier": {
                "system": "https://fhir.nhs.uk/Id/ods-organization-code",
                "value": "699X0"
              }
            },
            "system": "https://fhir.nwgenomics.nhs.uk/iGene/ReportIdentifier",
            "type": {
              "coding": [
                {
                  "code": "FILL",
                  "system": "http://terminology.hl7.org/CodeSystem/v2-0203"
                }
              ]
            },
            "value": "Gen825750"
          }
        ],
        "performer": [
          {
            "identifier": {
              "system": "https://fhir.nhs.uk/Id/ods-organization-code",
              "value": "699X0"
            },
            "type": "Organization"
          }
        ],
        "status": "final",
        "subject": {
          "identifier": {
            "system": "https://fhir.nhs.uk/Id/nhs-number",
            "type": {
              "coding": [
                {
                  "code": "NH",
                  "system": "http://terminology.hl7.org/CodeSystem/v2-0203"
                }
              ]
            },
            "value": "MR"
          },
          "reference": "urn:uuid:e29fe7fa-9a80-49e5-a620-b3a30c2ea23a"
        },
        "valueCodeableConcept": {
          "coding": [
            {
              "code": "c.727C>A",
              "display": "c.727C>A",
              "system": "http://varnomen.hgvs.org"
            }
          ]
        }
      }
    },
    {
      "fullUrl": "urn:uuid:94ec3e41-1ad4-4b83-bfb2-fa1e14003b49",
      "resource": {
        "resourceType": "Observation",
        "code": {
          "coding": [
            {
              "code": "48005-3",
              "display": "Amino acid change p.HGVS",
              "system": "http://loinc.org"
            }
          ]
        },
        "identifier": [
          {
            "assigner": {
              "identifier": {
                "system": "https://fhir.nhs.uk/Id/ods-organization-code",
                "value": "699X0"
              }
            },
            "system": "https://fhir.nwgenomics.nhs.uk/iGene/ReportIdentifier",
            "type": {
              "coding": [
                {
                  "code": "FILL",
                  "system": "http://terminology.hl7.org/CodeSystem/v2-0203"
                }
              ]
            },
            "value": "Gen825750"
          }
        ],
        "performer": [
          {
            "identifier": {
              "system": "https://fhir.nhs.uk/Id/ods-organization-code",
              "value": "699X0"
            },
            "type": "Organization"
          }
        ],
        "status": "final",
        "subject": {
          "identifier": {
            "system": "https://fhir.nhs.uk/Id/nhs-number",
            "type": {
              "coding": [
                {
                  "code": "NH",
                  "system": "http://terminology.hl7.org/CodeSystem/v2-0203"
                }
              ]
            },
            "value": "MR"
          },
          "reference": "urn:uuid:e29fe7fa-9a80-49e5-a620-b3a30c2ea23a"
        },
        "valueCodeableConcept": {
          "coding": [
            {
              "code": "p.Gln243Lys",
              "display": "p.Gln243Lys",
              "system": "http://varnomen.hgvs.org"
            }
          ]
        }
      }
    },
    {
      "fullUrl": "urn:uuid:7e1776b0-96c6-48a9-9343-5cec0a63936c",
      "resource": {
        "resourceType": "Observation",
        "code": {
          "coding": [
            {
              "code": "48019-4",
              "display": "DNA change type",
              "system": "http://loinc.org"
            }
          ]
        },
        "identifier": [
          {
            "assigner": {
              "identifier": {
                "system": "https://fhir.nhs.uk/Id/ods-organization-code",
                "value": "699X0"
              }
            },
            "system": "https://fhir.nwgenomics.nhs.uk/iGene/ReportIdentifier",
            "type": {
              "coding": [
                {
                  "code": "FILL",
                  "system": "http://terminology.hl7.org/CodeSystem/v2-0203"
                }
              ]
            },
            "value": "Gen825750"
          }
        ],
        "performer": [
          {
            "identifier": {
              "system": "https://fhir.nhs.uk/Id/ods-organization-code",
              "value": "699X0"
            },
            "type": "Organization"
          }
        ],
        "status": "final",
        "subject": {
          "identifier": {
            "system": "https://fhir.nhs.uk/Id/nhs-number",
            "type": {
              "coding": [
                {
                  "code": "NH",
                  "system": "http://terminology.hl7.org/CodeSystem/v2-0203"
                }
              ]
            },
            "value": "MR"
          },
          "reference": "urn:uuid:e29fe7fa-9a80-49e5-a620-b3a30c2ea23a"
        },
        "valueCodeableConcept": {
          "coding": [
            {
              "code": "LA6690-7",
              "display": "Substitution",
              "system": "http://loinc.org"
            }
          ]
        }
      }
    },
    {
      "fullUrl": "urn:uuid:d0b50d30-0d1e-40df-a404-2853bb86827d",
      "resource": {
        "resourceType": "Observation",
        "code": {
          "coding": [
            {
              "code": "48006-1",
              "display": "Amino acid change type",
              "system": "http://loinc.org"
            }
          ]
        },
        "identifier": [
          {
            "assigner": {
              "identifier": {
                "system": "https://fhir.nhs.uk/Id/ods-organization-code",
                "value": "699X0"
              }
            },
            "system": "https://fhir.nwgenomics.nhs.uk/iGene/ReportIdentifier",
            "type": {
              "coding": [
                {
                  "code": "FILL",
                  "system": "http://terminology.hl7.org/CodeSystem/v2-0203"
                }
              ]
            },
            "value": "Gen825750"
          }
        ],
        "performer": [
          {
            "identifier": {
              "system": "https://fhir.nhs.uk/Id/ods-organization-code",
              "value": "699X0"
            },
            "type": "Organization"
          }
        ],
        "status": "final",
        "subject": {
          "identifier": {
            "system": "https://fhir.nhs.uk/Id/nhs-number",
            "type": {
              "coding": [
                {
                  "code": "NH",
                  "system": "http://terminology.hl7.org/CodeSystem/v2-0203"
                }
              ]
            },
            "value": "MR"
          },
          "reference": "urn:uuid:e29fe7fa-9a80-49e5-a620-b3a30c2ea23a"
        },
        "valueCodeableConcept": {
          "coding": [
            {
              "code": "LA6698-0",
              "display": "Missense",
              "system": "http://loinc.org"
            }
          ]
        }
      }
    },
    {
      "fullUrl": "urn:uuid:4856651b-bf2e-4a43-9e00-765740158e18",
      "resource": {
        "resourceType": "Observation",
        "code": {
          "coding": [
            {
              "code": "81290-9",
              "display": "Genomic DNA change (gHGVS)",
              "system": "http://loinc.org"
            }
          ]
        },
        "identifier": [
          {
            "assigner": {
              "identifier": {
                "system": "https://fhir.nhs.uk/Id/ods-organization-code",
                "value": "699X0"
              }
            },
            "system": "https://fhir.nwgenomics.nhs.uk/iGene/ReportIdentifier",
            "type": {
              "coding": [
                {
                  "code": "FILL",
                  "system": "http://terminology.hl7.org/CodeSystem/v2-0203"
                }
              ]
            },
            "value": "Gen825750"
          }
        ],
        "performer": [
          {
            "identifier": {
              "system": "https://fhir.nhs.uk/Id/ods-organization-code",
              "value": "699X0"
            },
            "type": "Organization"
          }
        ],
        "status": "final",
        "subject": {
          "identifier": {
            "system": "https://fhir.nhs.uk/Id/nhs-number",
            "type": {
              "coding": [
                {
                  "code": "NH",
                  "system": "http://terminology.hl7.org/CodeSystem/v2-0203"
                }
              ]
            },
            "value": "MR"
          },
          "reference": "urn:uuid:e29fe7fa-9a80-49e5-a620-b3a30c2ea23a"
        },
        "valueCodeableConcept": {
          "coding": [
            {
              "code": "NC_000017.10",
              "display": "NC_000017.10",
              "system": "http://www.ncbi.nlm.nih.gov/refseq"
            }
          ]
        }
      }
    },
    {
      "fullUrl": "urn:uuid:0ef4dcb6-7e3f-47ff-993c-293da1ad91e5",
      "resource": {
        "resourceType": "Observation",
        "code": {
          "coding": [
            {
              "code": "69547-8",
              "display": "Genomic ref allele",
              "system": "http://loinc.org"
            }
          ]
        },
        "identifier": [
          {
            "assigner": {
              "identifier": {
                "system": "https://fhir.nhs.uk/Id/ods-organization-code",
                "value": "699X0"
              }
            },
            "system": "https://fhir.nwgenomics.nhs.uk/iGene/ReportIdentifier",
            "type": {
              "coding": [
                {
                  "code": "FILL",
                  "system": "http://terminology.hl7.org/CodeSystem/v2-0203"
                }
              ]
            },
            "value": "Gen825750"
          }
        ],
        "performer": [
          {
            "identifier": {
              "system": "https://fhir.nhs.uk/Id/ods-organization-code",
              "value": "699X0"
            },
            "type": "Organization"
          }
        ],
        "status": "final",
        "subject": {
          "identifier": {
            "system": "https://fhir.nhs.uk/Id/nhs-number",
            "type": {
              "coding": [
                {
                  "code": "NH",
                  "system": "http://terminology.hl7.org/CodeSystem/v2-0203"
                }
              ]
            },
            "value": "MR"
          },
          "reference": "urn:uuid:e29fe7fa-9a80-49e5-a620-b3a30c2ea23a"
        },
        "valueString": "G"
      }
    },
    {
      "fullUrl": "urn:uuid:98ac2f96-2eda-47bb-b355-697a7783435c",
      "resource": {
        "resourceType": "Observation",
        "code": {
          "coding": [
            {
              "code": "81254-5",
              "display": "Genomic allele location",
              "system": "http://loinc.org"
            }
          ]
        },
        "identifier": [
          {
            "assigner": {
              "identifier": {
                "system": "https://fhir.nhs.uk/Id/ods-organization-code",
                "value": "699X0"
              }
            },
            "system": "https://fhir.nwgenomics.nhs.uk/iGene/ReportIdentifier",
            "type": {
              "coding": [
                {
                  "code": "FILL",
                  "system": "http://terminology.hl7.org/CodeSystem/v2-0203"
                }
              ]
            },
            "value": "Gen825750"
          }
        ],
        "performer": [
          {
            "identifier": {
              "system": "https://fhir.nhs.uk/Id/ods-organization-code",
              "value": "699X0"
            },
            "type": "Organization"
          }
        ],
        "status": "final",
        "subject": {
          "identifier": {
            "system": "https://fhir.nhs.uk/Id/nhs-number",
            "type": {
              "coding": [
                {
                  "code": "NH",
                  "system": "http://terminology.hl7.org/CodeSystem/v2-0203"
                }
              ]
            },
            "value": "MR"
          },
          "reference": "urn:uuid:e29fe7fa-9a80-49e5-a620-b3a30c2ea23a"
        }
      }
    },
    {
      "fullUrl": "urn:uuid:891603ef-38e3-41a4-908b-dd7db69c8bf2",
      "resource": {
        "resourceType": "Observation",
        "code": {
          "coding": [
            {
              "code": "69551-0",
              "display": "Genomic alt allele",
              "system": "http://loinc.org"
            }
          ]
        },
        "identifier": [
          {
            "assigner": {
              "identifier": {
                "system": "https://fhir.nhs.uk/Id/ods-organization-code",
                "value": "699X0"
              }
            },
            "system": "https://fhir.nwgenomics.nhs.uk/iGene/ReportIdentifier",
            "type": {
              "coding": [
                {
                  "code": "FILL",
                  "system": "http://terminology.hl7.org/CodeSystem/v2-0203"
                }
              ]
            },
            "value": "Gen825750"
          }
        ],
        "performer": [
          {
            "identifier": {
              "system": "https://fhir.nhs.uk/Id/ods-organization-code",
              "value": "699X0"
            },
            "type": "Organization"
          }
        ],
        "status": "final",
        "subject": {
          "identifier": {
            "system": "https://fhir.nhs.uk/Id/nhs-number",
            "type": {
              "coding": [
                {
                  "code": "NH",
                  "system": "http://terminology.hl7.org/CodeSystem/v2-0203"
                }
              ]
            },
            "value": "MR"
          },
          "reference": "urn:uuid:e29fe7fa-9a80-49e5-a620-b3a30c2ea23a"
        },
        "valueString": "T"
      }
    },
    {
      "fullUrl": "urn:uuid:81557167-79f0-47cf-aea6-a2172258d9d6",
      "resource": {
        "resourceType": "Observation",
        "code": {
          "coding": [
            {
              "code": "81255-2",
              "display": "dbSNP ID",
              "system": "http://loinc.org"
            }
          ]
        },
        "identifier": [
          {
            "assigner": {
              "identifier": {
                "system": "https://fhir.nhs.uk/Id/ods-organization-code",
                "value": "699X0"
              }
            },
            "system": "https://fhir.nwgenomics.nhs.uk/iGene/ReportIdentifier",
            "type": {
              "coding": [
                {
                  "code": "FILL",
                  "system": "http://terminology.hl7.org/CodeSystem/v2-0203"
                }
              ]
            },
            "value": "Gen825750"
          }
        ],
        "performer": [
          {
            "identifier": {
              "system": "https://fhir.nhs.uk/Id/ods-organization-code",
              "value": "699X0"
            },
            "type": "Organization"
          }
        ],
        "status": "final",
        "subject": {
          "identifier": {
            "system": "https://fhir.nhs.uk/Id/nhs-number",
            "type": {
              "coding": [
                {
                  "code": "NH",
                  "system": "http://terminology.hl7.org/CodeSystem/v2-0203"
                }
              ]
            },
            "value": "MR"
          },
          "reference": "urn:uuid:e29fe7fa-9a80-49e5-a620-b3a30c2ea23a"
        },
        "valueCodeableConcept": {
          "coding": [
            {
              "code": "rs142096969",
              "display": "rs142096969",
              "system": "http://www.ncbi.nlm.nih.gov/projects/SNP"
            }
          ]
        }
      }
    },
    {
      "fullUrl": "urn:uuid:261a430e-4c8e-430c-b48f-93d4ddd6299b",
      "resource": {
        "resourceType": "Observation",
        "code": {
          "coding": [
            {
              "code": "48001-2",
              "display": "Cytogenetic (chromosome) location",
              "system": "http://loinc.org"
            }
          ]
        },
        "identifier": [
          {
            "assigner": {
              "identifier": {
                "system": "https://fhir.nhs.uk/Id/ods-organization-code",
                "value": "699X0"
              }
            },
            "system": "https://fhir.nwgenomics.nhs.uk/iGene/ReportIdentifier",
            "type": {
              "coding": [
                {
                  "code": "FILL",
                  "system": "http://terminology.hl7.org/CodeSystem/v2-0203"
                }
              ]
            },
            "value": "Gen825750"
          }
        ],
        "performer": [
          {
            "identifier": {
              "system": "https://fhir.nhs.uk/Id/ods-organization-code",
              "value": "699X0"
            },
            "type": "Organization"
          }
        ],
        "status": "final",
        "subject": {
          "identifier": {
            "system": "https://fhir.nhs.uk/Id/nhs-number",
            "type": {
              "coding": [
                {
                  "code": "NH",
                  "system": "http://terminology.hl7.org/CodeSystem/v2-0203"
                }
              ]
            },
            "value": "MR"
          },
          "reference": "urn:uuid:e29fe7fa-9a80-49e5-a620-b3a30c2ea23a"
        },
        "valueCodeableConcept": {
          "coding": [
            {
              "code": "17q21.31",
              "display": "17q21.31",
              "system": "Chrom-Loc"
            }
          ]
        }
      }
    },
    {
      "fullUrl": "urn:uuid:ef594dc3-6c75-45f0-9004-cd622f1bf7e3",
      "resource": {
        "resourceType": "Observation",
        "code": {
          "coding": [
            {
              "code": "48002-0",
              "display": "Genomic source class",
              "system": "http://loinc.org"
            }
          ]
        },
        "identifier": [
          {
            "assigner": {
              "identifier": {
                "system": "https://fhir.nhs.uk/Id/ods-organization-code",
                "value": "699X0"
              }
            },
            "system": "https://fhir.nwgenomics.nhs.uk/iGene/ReportIdentifier",
            "type": {
              "coding": [
                {
                  "code": "FILL",
                  "system": "http://terminology.hl7.org/CodeSystem/v2-0203"
                }
              ]
            },
            "value": "Gen825750"
          }
        ],
        "performer": [
          {
            "identifier": {
              "system": "https://fhir.nhs.uk/Id/ods-organization-code",
              "value": "699X0"
            },
            "type": "Organization"
          }
        ],
        "status": "final",
        "subject": {
          "identifier": {
            "system": "https://fhir.nhs.uk/Id/nhs-number",
            "type": {
              "coding": [
                {
                  "code": "NH",
                  "system": "http://terminology.hl7.org/CodeSystem/v2-0203"
                }
              ]
            },
            "value": "MR"
          },
          "reference": "urn:uuid:e29fe7fa-9a80-49e5-a620-b3a30c2ea23a"
        },
        "valueCodeableConcept": {
          "coding": [
            {
              "code": "LA6683-2",
              "display": "Germline",
              "system": "http://loinc.org"
            }
          ]
        }
      }
    },
    {
      "fullUrl": "urn:uuid:5d7a73ab-4487-4ff0-8b99-44fefb983e44",
      "resource": {
        "resourceType": "Observation",
        "code": {
          "coding": [
            {
              "code": "53037-8",
              "display": "Genetic variation clinical significance",
              "system": "http://loinc.org"
            }
          ]
        },
        "identifier": [
          {
            "assigner": {
              "identifier": {
                "system": "https://fhir.nhs.uk/Id/ods-organization-code",
                "value": "699X0"
              }
            },
            "system": "https://fhir.nwgenomics.nhs.uk/iGene/ReportIdentifier",
            "type": {
              "coding": [
                {
                  "code": "FILL",
                  "system": "http://terminology.hl7.org/CodeSystem/v2-0203"
                }
              ]
            },
            "value": "Gen825750"
          }
        ],
        "performer": [
          {
            "identifier": {
              "system": "https://fhir.nhs.uk/Id/ods-organization-code",
              "value": "699X0"
            },
            "type": "Organization"
          }
        ],
        "status": "final",
        "subject": {
          "identifier": {
            "system": "https://fhir.nhs.uk/Id/nhs-number",
            "type": {
              "coding": [
                {
                  "code": "NH",
                  "system": "http://terminology.hl7.org/CodeSystem/v2-0203"
                }
              ]
            },
            "value": "MR"
          },
          "reference": "urn:uuid:e29fe7fa-9a80-49e5-a620-b3a30c2ea23a"
        },
        "valueCodeableConcept": {
          "coding": [
            {
              "code": "LA6674-1",
              "display": "Likely Benign",
              "system": "http://loinc.org"
            }
          ]
        }
      }
    },
    {
      "fullUrl": "urn:uuid:70359e0b-defb-4b1d-a19f-0e5495fed0e7",
      "resource": {
        "resourceType": "Observation",
        "code": {
          "coding": [
            {
              "code": "69548-6",
              "display": "Genomic variant assessment",
              "system": "http://loinc.org"
            }
          ]
        },
        "identifier": [
          {
            "assigner": {
              "identifier": {
                "system": "https://fhir.nhs.uk/Id/ods-organization-code",
                "value": "699X0"
              }
            },
            "system": "https://fhir.nwgenomics.nhs.uk/iGene/ReportIdentifier",
            "type": {
              "coding": [
                {
                  "code": "FILL",
                  "system": "http://terminology.hl7.org/CodeSystem/v2-0203"
                }
              ]
            },
            "value": "Gen825750"
          }
        ],
        "performer": [
          {
            "identifier": {
              "system": "https://fhir.nhs.uk/Id/ods-organization-code",
              "value": "699X0"
            },
            "type": "Organization"
          }
        ],
        "status": "final",
        "subject": {
          "identifier": {
            "system": "https://fhir.nhs.uk/Id/nhs-number",
            "type": {
              "coding": [
                {
                  "code": "NH",
                  "system": "http://terminology.hl7.org/CodeSystem/v2-0203"
                }
              ]
            },
            "value": "MR"
          },
          "reference": "urn:uuid:e29fe7fa-9a80-49e5-a620-b3a30c2ea23a"
        },
        "valueCodeableConcept": {
          "coding": [
            {
              "code": "LA9633-4",
              "display": "Present",
              "system": "http://loinc.org"
            }
          ]
        }
      }
    },
    {
      "fullUrl": "urn:uuid:a4ef7748-1207-4473-9844-f3a9aca1268d",
      "resource": {
        "resourceType": "Observation",
        "code": {
          "coding": [
            {
              "code": "53034-5",
              "display": "Allelic state",
              "system": "http://loinc.org"
            }
          ]
        },
        "identifier": [
          {
            "assigner": {
              "identifier": {
                "system": "https://fhir.nhs.uk/Id/ods-organization-code",
                "value": "699X0"
              }
            },
            "system": "https://fhir.nwgenomics.nhs.uk/iGene/ReportIdentifier",
            "type": {
              "coding": [
                {
                  "code": "FILL",
                  "system": "http://terminology.hl7.org/CodeSystem/v2-0203"
                }
              ]
            },
            "value": "Gen825750"
          }
        ],
        "performer": [
          {
            "identifier": {
              "system": "https://fhir.nhs.uk/Id/ods-organization-code",
              "value": "699X0"
            },
            "type": "Organization"
          }
        ],
        "status": "final",
        "subject": {
          "identifier": {
            "system": "https://fhir.nhs.uk/Id/nhs-number",
            "type": {
              "coding": [
                {
                  "code": "NH",
                  "system": "http://terminology.hl7.org/CodeSystem/v2-0203"
                }
              ]
            },
            "value": "MR"
          },
          "reference": "urn:uuid:e29fe7fa-9a80-49e5-a620-b3a30c2ea23a"
        },
        "valueCodeableConcept": {
          "coding": [
            {
              "code": "LA6706-1",
              "display": "Heterozygous",
              "system": "http://loinc.org"
            }
          ]
        }
      }
    },
    {
      "fullUrl": "urn:uuid:a260e95f-5ecb-4d41-87f2-89142f471e54",
      "resource": {
        "resourceType": "Observation",
        "code": {
          "coding": [
            {
              "code": "83005-9",
              "display": "Variant Category",
              "system": "http://loinc.org"
            }
          ]
        },
        "identifier": [
          {
            "assigner": {
              "identifier": {
                "system": "https://fhir.nhs.uk/Id/ods-organization-code",
                "value": "699X0"
              }
            },
            "system": "https://fhir.nwgenomics.nhs.uk/iGene/ReportIdentifier",
            "type": {
              "coding": [
                {
                  "code": "FILL",
                  "system": "http://terminology.hl7.org/CodeSystem/v2-0203"
                }
              ]
            },
            "value": "Gen825750"
          }
        ],
        "performer": [
          {
            "identifier": {
              "system": "https://fhir.nhs.uk/Id/ods-organization-code",
              "value": "699X0"
            },
            "type": "Organization"
          }
        ],
        "status": "final",
        "subject": {
          "identifier": {
            "system": "https://fhir.nhs.uk/Id/nhs-number",
            "type": {
              "coding": [
                {
                  "code": "NH",
                  "system": "http://terminology.hl7.org/CodeSystem/v2-0203"
                }
              ]
            },
            "value": "MR"
          },
          "reference": "urn:uuid:e29fe7fa-9a80-49e5-a620-b3a30c2ea23a"
        },
        "valueCodeableConcept": {
          "coding": [
            {
              "code": "LA26801-3",
              "display": "Simple Variant",
              "system": "http://loinc.org"
            }
          ]
        }
      }
    },
    {
      "fullUrl": "urn:uuid:a855ec46-7056-4073-a78a-3598b888d93d",
      "resource": {
        "resourceType": "Observation",
        "code": {
          "coding": [
            {
              "code": "81252-9",
              "display": "Discrete genetic variant",
              "system": "http://loinc.org"
            }
          ]
        },
        "identifier": [
          {
            "assigner": {
              "identifier": {
                "system": "https://fhir.nhs.uk/Id/ods-organization-code",
                "value": "699X0"
              }
            },
            "system": "https://fhir.nwgenomics.nhs.uk/iGene/ReportIdentifier",
            "type": {
              "coding": [
                {
                  "code": "FILL",
                  "system": "http://terminology.hl7.org/CodeSystem/v2-0203"
                }
              ]
            },
            "value": "Gen825750"
          }
        ],
        "performer": [
          {
            "identifier": {
              "system": "https://fhir.nhs.uk/Id/ods-organization-code",
              "value": "699X0"
            },
            "type": "Organization"
          }
        ],
        "status": "final",
        "subject": {
          "identifier": {
            "system": "https://fhir.nhs.uk/Id/nhs-number",
            "type": {
              "coding": [
                {
                  "code": "NH",
                  "system": "http://terminology.hl7.org/CodeSystem/v2-0203"
                }
              ]
            },
            "value": "MR"
          },
          "reference": "urn:uuid:e29fe7fa-9a80-49e5-a620-b3a30c2ea23a"
        },
        "valueCodeableConcept": {
          "coding": [
            {
              "code": "159792",
              "display": "NM_007254.3(PNKP):c.188C>T(p.Ala63Val)",
              "system": "http://www.ncbi.nlm.nih.gov/clinvar"
            }
          ]
        }
      }
    },
    {
      "fullUrl": "urn:uuid:2aab4beb-21fe-41d4-91b9-9ea31a306580",
      "resource": {
        "resourceType": "Observation",
        "code": {
          "coding": [
            {
              "code": "48018-6",
              "display": "Gene studied",
              "system": "http://loinc.org"
            }
          ]
        },
        "identifier": [
          {
            "assigner": {
              "identifier": {
                "system": "https://fhir.nhs.uk/Id/ods-organization-code",
                "value": "699X0"
              }
            },
            "system": "https://fhir.nwgenomics.nhs.uk/iGene/ReportIdentifier",
            "type": {
              "coding": [
                {
                  "code": "FILL",
                  "system": "http://terminology.hl7.org/CodeSystem/v2-0203"
                }
              ]
            },
            "value": "Gen825750"
          }
        ],
        "performer": [
          {
            "identifier": {
              "system": "https://fhir.nhs.uk/Id/ods-organization-code",
              "value": "699X0"
            },
            "type": "Organization"
          }
        ],
        "status": "final",
        "subject": {
          "identifier": {
            "system": "https://fhir.nhs.uk/Id/nhs-number",
            "type": {
              "coding": [
                {
                  "code": "NH",
                  "system": "http://terminology.hl7.org/CodeSystem/v2-0203"
                }
              ]
            },
            "value": "MR"
          },
          "reference": "urn:uuid:e29fe7fa-9a80-49e5-a620-b3a30c2ea23a"
        },
        "valueCodeableConcept": {
          "coding": [
            {
              "code": "9154",
              "display": "PNKP",
              "system": "http://www.genenames.org"
            }
          ]
        }
      }
    },
    {
      "fullUrl": "urn:uuid:3e6a2d15-0f22-4e4c-ab82-3a3742b59783",
      "resource": {
        "resourceType": "Observation",
        "code": {
          "coding": [
            {
              "code": "51958-7",
              "display": "Transcript RefSeq ID",
              "system": "http://loinc.org"
            }
          ]
        },
        "identifier": [
          {
            "assigner": {
              "identifier": {
                "system": "https://fhir.nhs.uk/Id/ods-organization-code",
                "value": "699X0"
              }
            },
            "system": "https://fhir.nwgenomics.nhs.uk/iGene/ReportIdentifier",
            "type": {
              "coding": [
                {
                  "code": "FILL",
                  "system": "http://terminology.hl7.org/CodeSystem/v2-0203"
                }
              ]
            },
            "value": "Gen825750"
          }
        ],
        "performer": [
          {
            "identifier": {
              "system": "https://fhir.nhs.uk/Id/ods-organization-code",
              "value": "699X0"
            },
            "type": "Organization"
          }
        ],
        "status": "final",
        "subject": {
          "identifier": {
            "system": "https://fhir.nhs.uk/Id/nhs-number",
            "type": {
              "coding": [
                {
                  "code": "NH",
                  "system": "http://terminology.hl7.org/CodeSystem/v2-0203"
                }
              ]
            },
            "value": "MR"
          },
          "reference": "urn:uuid:e29fe7fa-9a80-49e5-a620-b3a30c2ea23a"
        },
        "valueCodeableConcept": {
          "coding": [
            {
              "code": "NM_007254.3",
              "display": "NM_007254.3",
              "system": "http://www.ncbi.nlm.nih.gov/refseq"
            }
          ]
        }
      }
    },
    {
      "fullUrl": "urn:uuid:5019ef63-6bd9-454e-bf21-b85e82a9bd6e",
      "resource": {
        "resourceType": "Observation",
        "code": {
          "coding": [
            {
              "code": "41103-3",
              "display": "Transcript DNA Change (cHGVS)",
              "system": "http://loinc.org"
            }
          ]
        },
        "identifier": [
          {
            "assigner": {
              "identifier": {
                "system": "https://fhir.nhs.uk/Id/ods-organization-code",
                "value": "699X0"
              }
            },
            "system": "https://fhir.nwgenomics.nhs.uk/iGene/ReportIdentifier",
            "type": {
              "coding": [
                {
                  "code": "FILL",
                  "system": "http://terminology.hl7.org/CodeSystem/v2-0203"
                }
              ]
            },
            "value": "Gen825750"
          }
        ],
        "performer": [
          {
            "identifier": {
              "system": "https://fhir.nhs.uk/Id/ods-organization-code",
              "value": "699X0"
            },
            "type": "Organization"
          }
        ],
        "status": "final",
        "subject": {
          "identifier": {
            "system": "https://fhir.nhs.uk/Id/nhs-number",
            "type": {
              "coding": [
                {
                  "code": "NH",
                  "system": "http://terminology.hl7.org/CodeSystem/v2-0203"
                }
              ]
            },
            "value": "MR"
          },
          "reference": "urn:uuid:e29fe7fa-9a80-49e5-a620-b3a30c2ea23a"
        },
        "valueCodeableConcept": {
          "coding": [
            {
              "code": "c.188C>T",
              "display": "c.188C>T",
              "system": "http://varnomen.hgvs.org"
            }
          ]
        }
      }
    },
    {
      "fullUrl": "urn:uuid:200d477b-b106-473e-935b-4b9fdceff022",
      "resource": {
        "resourceType": "Observation",
        "code": {
          "coding": [
            {
              "code": "48005-3",
              "display": "Amino acid change p.HGVS",
              "system": "http://loinc.org"
            }
          ]
        },
        "identifier": [
          {
            "assigner": {
              "identifier": {
                "system": "https://fhir.nhs.uk/Id/ods-organization-code",
                "value": "699X0"
              }
            },
            "system": "https://fhir.nwgenomics.nhs.uk/iGene/ReportIdentifier",
            "type": {
              "coding": [
                {
                  "code": "FILL",
                  "system": "http://terminology.hl7.org/CodeSystem/v2-0203"
                }
              ]
            },
            "value": "Gen825750"
          }
        ],
        "performer": [
          {
            "identifier": {
              "system": "https://fhir.nhs.uk/Id/ods-organization-code",
              "value": "699X0"
            },
            "type": "Organization"
          }
        ],
        "status": "final",
        "subject": {
          "identifier": {
            "system": "https://fhir.nhs.uk/Id/nhs-number",
            "type": {
              "coding": [
                {
                  "code": "NH",
                  "system": "http://terminology.hl7.org/CodeSystem/v2-0203"
                }
              ]
            },
            "value": "MR"
          },
          "reference": "urn:uuid:e29fe7fa-9a80-49e5-a620-b3a30c2ea23a"
        },
        "valueCodeableConcept": {
          "coding": [
            {
              "code": "p.Ala63Val",
              "display": "p.Ala63Val",
              "system": "http://varnomen.hgvs.org"
            }
          ]
        }
      }
    },
    {
      "fullUrl": "urn:uuid:8fdba1ac-8871-4667-98da-aceb7065a398",
      "resource": {
        "resourceType": "Observation",
        "code": {
          "coding": [
            {
              "code": "48019-4",
              "display": "DNA change type",
              "system": "http://loinc.org"
            }
          ]
        },
        "identifier": [
          {
            "assigner": {
              "identifier": {
                "system": "https://fhir.nhs.uk/Id/ods-organization-code",
                "value": "699X0"
              }
            },
            "system": "https://fhir.nwgenomics.nhs.uk/iGene/ReportIdentifier",
            "type": {
              "coding": [
                {
                  "code": "FILL",
                  "system": "http://terminology.hl7.org/CodeSystem/v2-0203"
                }
              ]
            },
            "value": "Gen825750"
          }
        ],
        "performer": [
          {
            "identifier": {
              "system": "https://fhir.nhs.uk/Id/ods-organization-code",
              "value": "699X0"
            },
            "type": "Organization"
          }
        ],
        "status": "final",
        "subject": {
          "identifier": {
            "system": "https://fhir.nhs.uk/Id/nhs-number",
            "type": {
              "coding": [
                {
                  "code": "NH",
                  "system": "http://terminology.hl7.org/CodeSystem/v2-0203"
                }
              ]
            },
            "value": "MR"
          },
          "reference": "urn:uuid:e29fe7fa-9a80-49e5-a620-b3a30c2ea23a"
        },
        "valueCodeableConcept": {
          "coding": [
            {
              "code": "LA6690-7",
              "display": "Substitution",
              "system": "http://loinc.org"
            }
          ]
        }
      }
    },
    {
      "fullUrl": "urn:uuid:b5901ca0-6bf5-4943-8216-0e578ac9868a",
      "resource": {
        "resourceType": "Observation",
        "code": {
          "coding": [
            {
              "code": "48006-1",
              "display": "Amino acid change type",
              "system": "http://loinc.org"
            }
          ]
        },
        "identifier": [
          {
            "assigner": {
              "identifier": {
                "system": "https://fhir.nhs.uk/Id/ods-organization-code",
                "value": "699X0"
              }
            },
            "system": "https://fhir.nwgenomics.nhs.uk/iGene/ReportIdentifier",
            "type": {
              "coding": [
                {
                  "code": "FILL",
                  "system": "http://terminology.hl7.org/CodeSystem/v2-0203"
                }
              ]
            },
            "value": "Gen825750"
          }
        ],
        "performer": [
          {
            "identifier": {
              "system": "https://fhir.nhs.uk/Id/ods-organization-code",
              "value": "699X0"
            },
            "type": "Organization"
          }
        ],
        "status": "final",
        "subject": {
          "identifier": {
            "system": "https://fhir.nhs.uk/Id/nhs-number",
            "type": {
              "coding": [
                {
                  "code": "NH",
                  "system": "http://terminology.hl7.org/CodeSystem/v2-0203"
                }
              ]
            },
            "value": "MR"
          },
          "reference": "urn:uuid:e29fe7fa-9a80-49e5-a620-b3a30c2ea23a"
        },
        "valueCodeableConcept": {
          "coding": [
            {
              "code": "LA6698-0",
              "display": "Missense",
              "system": "http://loinc.org"
            }
          ]
        }
      }
    },
    {
      "fullUrl": "urn:uuid:0d49b2c2-fb2b-47a5-be2a-da51ec9522c4",
      "resource": {
        "resourceType": "Observation",
        "code": {
          "coding": [
            {
              "code": "81290-9",
              "display": "Genomic DNA change (gHGVS)",
              "system": "http://loinc.org"
            }
          ]
        },
        "identifier": [
          {
            "assigner": {
              "identifier": {
                "system": "https://fhir.nhs.uk/Id/ods-organization-code",
                "value": "699X0"
              }
            },
            "system": "https://fhir.nwgenomics.nhs.uk/iGene/ReportIdentifier",
            "type": {
              "coding": [
                {
                  "code": "FILL",
                  "system": "http://terminology.hl7.org/CodeSystem/v2-0203"
                }
              ]
            },
            "value": "Gen825750"
          }
        ],
        "performer": [
          {
            "identifier": {
              "system": "https://fhir.nhs.uk/Id/ods-organization-code",
              "value": "699X0"
            },
            "type": "Organization"
          }
        ],
        "status": "final",
        "subject": {
          "identifier": {
            "system": "https://fhir.nhs.uk/Id/nhs-number",
            "type": {
              "coding": [
                {
                  "code": "NH",
                  "system": "http://terminology.hl7.org/CodeSystem/v2-0203"
                }
              ]
            },
            "value": "MR"
          },
          "reference": "urn:uuid:e29fe7fa-9a80-49e5-a620-b3a30c2ea23a"
        },
        "valueCodeableConcept": {
          "coding": [
            {
              "code": "NC_000019.9",
              "display": "NC_000019.9",
              "system": "http://www.ncbi.nlm.nih.gov/refseq"
            }
          ]
        }
      }
    },
    {
      "fullUrl": "urn:uuid:2940bb88-d984-4920-9eaf-8bcff92cc5c3",
      "resource": {
        "resourceType": "Observation",
        "code": {
          "coding": [
            {
              "code": "69547-8",
              "display": "Genomic ref allele",
              "system": "http://loinc.org"
            }
          ]
        },
        "identifier": [
          {
            "assigner": {
              "identifier": {
                "system": "https://fhir.nhs.uk/Id/ods-organization-code",
                "value": "699X0"
              }
            },
            "system": "https://fhir.nwgenomics.nhs.uk/iGene/ReportIdentifier",
            "type": {
              "coding": [
                {
                  "code": "FILL",
                  "system": "http://terminology.hl7.org/CodeSystem/v2-0203"
                }
              ]
            },
            "value": "Gen825750"
          }
        ],
        "performer": [
          {
            "identifier": {
              "system": "https://fhir.nhs.uk/Id/ods-organization-code",
              "value": "699X0"
            },
            "type": "Organization"
          }
        ],
        "status": "final",
        "subject": {
          "identifier": {
            "system": "https://fhir.nhs.uk/Id/nhs-number",
            "type": {
              "coding": [
                {
                  "code": "NH",
                  "system": "http://terminology.hl7.org/CodeSystem/v2-0203"
                }
              ]
            },
            "value": "MR"
          },
          "reference": "urn:uuid:e29fe7fa-9a80-49e5-a620-b3a30c2ea23a"
        },
        "valueString": "G"
      }
    },
    {
      "fullUrl": "urn:uuid:0a957d99-96ba-423c-b1d0-a1b779ba25df",
      "resource": {
        "resourceType": "Observation",
        "code": {
          "coding": [
            {
              "code": "81254-5",
              "display": "Genomic allele location",
              "system": "http://loinc.org"
            }
          ]
        },
        "identifier": [
          {
            "assigner": {
              "identifier": {
                "system": "https://fhir.nhs.uk/Id/ods-organization-code",
                "value": "699X0"
              }
            },
            "system": "https://fhir.nwgenomics.nhs.uk/iGene/ReportIdentifier",
            "type": {
              "coding": [
                {
                  "code": "FILL",
                  "system": "http://terminology.hl7.org/CodeSystem/v2-0203"
                }
              ]
            },
            "value": "Gen825750"
          }
        ],
        "performer": [
          {
            "identifier": {
              "system": "https://fhir.nhs.uk/Id/ods-organization-code",
              "value": "699X0"
            },
            "type": "Organization"
          }
        ],
        "status": "final",
        "subject": {
          "identifier": {
            "system": "https://fhir.nhs.uk/Id/nhs-number",
            "type": {
              "coding": [
                {
                  "code": "NH",
                  "system": "http://terminology.hl7.org/CodeSystem/v2-0203"
                }
              ]
            },
            "value": "MR"
          },
          "reference": "urn:uuid:e29fe7fa-9a80-49e5-a620-b3a30c2ea23a"
        }
      }
    },
    {
      "fullUrl": "urn:uuid:44cf0f7e-8732-4f65-92f9-4114b262a699",
      "resource": {
        "resourceType": "Observation",
        "code": {
          "coding": [
            {
              "code": "69551-0",
              "display": "Genomic alt allele",
              "system": "http://loinc.org"
            }
          ]
        },
        "identifier": [
          {
            "assigner": {
              "identifier": {
                "system": "https://fhir.nhs.uk/Id/ods-organization-code",
                "value": "699X0"
              }
            },
            "system": "https://fhir.nwgenomics.nhs.uk/iGene/ReportIdentifier",
            "type": {
              "coding": [
                {
                  "code": "FILL",
                  "system": "http://terminology.hl7.org/CodeSystem/v2-0203"
                }
              ]
            },
            "value": "Gen825750"
          }
        ],
        "performer": [
          {
            "identifier": {
              "system": "https://fhir.nhs.uk/Id/ods-organization-code",
              "value": "699X0"
            },
            "type": "Organization"
          }
        ],
        "status": "final",
        "subject": {
          "identifier": {
            "system": "https://fhir.nhs.uk/Id/nhs-number",
            "type": {
              "coding": [
                {
                  "code": "NH",
                  "system": "http://terminology.hl7.org/CodeSystem/v2-0203"
                }
              ]
            },
            "value": "MR"
          },
          "reference": "urn:uuid:e29fe7fa-9a80-49e5-a620-b3a30c2ea23a"
        },
        "valueString": "A"
      }
    },
    {
      "fullUrl": "urn:uuid:d550b4da-3d2d-47e8-82f6-0fcb78d1386c",
      "resource": {
        "resourceType": "Observation",
        "code": {
          "coding": [
            {
              "code": "81255-2",
              "display": "dbSNP ID",
              "system": "http://loinc.org"
            }
          ]
        },
        "identifier": [
          {
            "assigner": {
              "identifier": {
                "system": "https://fhir.nhs.uk/Id/ods-organization-code",
                "value": "699X0"
              }
            },
            "system": "https://fhir.nwgenomics.nhs.uk/iGene/ReportIdentifier",
            "type": {
              "coding": [
                {
                  "code": "FILL",
                  "system": "http://terminology.hl7.org/CodeSystem/v2-0203"
                }
              ]
            },
            "value": "Gen825750"
          }
        ],
        "performer": [
          {
            "identifier": {
              "system": "https://fhir.nhs.uk/Id/ods-organization-code",
              "value": "699X0"
            },
            "type": "Organization"
          }
        ],
        "status": "final",
        "subject": {
          "identifier": {
            "system": "https://fhir.nhs.uk/Id/nhs-number",
            "type": {
              "coding": [
                {
                  "code": "NH",
                  "system": "http://terminology.hl7.org/CodeSystem/v2-0203"
                }
              ]
            },
            "value": "MR"
          },
          "reference": "urn:uuid:e29fe7fa-9a80-49e5-a620-b3a30c2ea23a"
        },
        "valueCodeableConcept": {
          "coding": [
            {
              "code": "rs3739173",
              "display": "rs3739173",
              "system": "http://www.ncbi.nlm.nih.gov/projects/SNP"
            }
          ]
        }
      }
    },
    {
      "fullUrl": "urn:uuid:4d3a21eb-4ba5-453e-8737-555092ca0aad",
      "resource": {
        "resourceType": "Observation",
        "code": {
          "coding": [
            {
              "code": "48001-2",
              "display": "Cytogenetic (chromosome) location",
              "system": "http://loinc.org"
            }
          ]
        },
        "identifier": [
          {
            "assigner": {
              "identifier": {
                "system": "https://fhir.nhs.uk/Id/ods-organization-code",
                "value": "699X0"
              }
            },
            "system": "https://fhir.nwgenomics.nhs.uk/iGene/ReportIdentifier",
            "type": {
              "coding": [
                {
                  "code": "FILL",
                  "system": "http://terminology.hl7.org/CodeSystem/v2-0203"
                }
              ]
            },
            "value": "Gen825750"
          }
        ],
        "performer": [
          {
            "identifier": {
              "system": "https://fhir.nhs.uk/Id/ods-organization-code",
              "value": "699X0"
            },
            "type": "Organization"
          }
        ],
        "status": "final",
        "subject": {
          "identifier": {
            "system": "https://fhir.nhs.uk/Id/nhs-number",
            "type": {
              "coding": [
                {
                  "code": "NH",
                  "system": "http://terminology.hl7.org/CodeSystem/v2-0203"
                }
              ]
            },
            "value": "MR"
          },
          "reference": "urn:uuid:e29fe7fa-9a80-49e5-a620-b3a30c2ea23a"
        },
        "valueCodeableConcept": {
          "coding": [
            {
              "code": "19q13.33",
              "display": "19q13.33",
              "system": "Chrom-Loc"
            }
          ]
        }
      }
    },
    {
      "fullUrl": "urn:uuid:3e636742-8c6f-43c0-b603-0c8fd6392097",
      "resource": {
        "resourceType": "Observation",
        "code": {
          "coding": [
            {
              "code": "48002-0",
              "display": "Genomic source class",
              "system": "http://loinc.org"
            }
          ]
        },
        "identifier": [
          {
            "assigner": {
              "identifier": {
                "system": "https://fhir.nhs.uk/Id/ods-organization-code",
                "value": "699X0"
              }
            },
            "system": "https://fhir.nwgenomics.nhs.uk/iGene/ReportIdentifier",
            "type": {
              "coding": [
                {
                  "code": "FILL",
                  "system": "http://terminology.hl7.org/CodeSystem/v2-0203"
                }
              ]
            },
            "value": "Gen825750"
          }
        ],
        "performer": [
          {
            "identifier": {
              "system": "https://fhir.nhs.uk/Id/ods-organization-code",
              "value": "699X0"
            },
            "type": "Organization"
          }
        ],
        "status": "final",
        "subject": {
          "identifier": {
            "system": "https://fhir.nhs.uk/Id/nhs-number",
            "type": {
              "coding": [
                {
                  "code": "NH",
                  "system": "http://terminology.hl7.org/CodeSystem/v2-0203"
                }
              ]
            },
            "value": "MR"
          },
          "reference": "urn:uuid:e29fe7fa-9a80-49e5-a620-b3a30c2ea23a"
        },
        "valueCodeableConcept": {
          "coding": [
            {
              "code": "LA6683-2",
              "display": "Germline",
              "system": "http://loinc.org"
            }
          ]
        }
      }
    },
    {
      "fullUrl": "urn:uuid:1823b2f8-b00f-4631-82a0-e90f90a9fa9e",
      "resource": {
        "resourceType": "Observation",
        "code": {
          "coding": [
            {
              "code": "53037-8",
              "display": "Genetic variation clinical significance",
              "system": "http://loinc.org"
            }
          ]
        },
        "identifier": [
          {
            "assigner": {
              "identifier": {
                "system": "https://fhir.nhs.uk/Id/ods-organization-code",
                "value": "699X0"
              }
            },
            "system": "https://fhir.nwgenomics.nhs.uk/iGene/ReportIdentifier",
            "type": {
              "coding": [
                {
                  "code": "FILL",
                  "system": "http://terminology.hl7.org/CodeSystem/v2-0203"
                }
              ]
            },
            "value": "Gen825750"
          }
        ],
        "performer": [
          {
            "identifier": {
              "system": "https://fhir.nhs.uk/Id/ods-organization-code",
              "value": "699X0"
            },
            "type": "Organization"
          }
        ],
        "status": "final",
        "subject": {
          "identifier": {
            "system": "https://fhir.nhs.uk/Id/nhs-number",
            "type": {
              "coding": [
                {
                  "code": "NH",
                  "system": "http://terminology.hl7.org/CodeSystem/v2-0203"
                }
              ]
            },
            "value": "MR"
          },
          "reference": "urn:uuid:e29fe7fa-9a80-49e5-a620-b3a30c2ea23a"
        },
        "valueCodeableConcept": {
          "coding": [
            {
              "code": "LA6671-7",
              "display": "Uncertain Significance",
              "system": "http://loinc.org"
            }
          ]
        }
      }
    },
    {
      "fullUrl": "urn:uuid:9d5d8c96-d8e1-4b62-8d4a-8a57433e2862",
      "resource": {
        "resourceType": "Observation",
        "code": {
          "coding": [
            {
              "code": "69548-6",
              "display": "Genomic variant assessment",
              "system": "http://loinc.org"
            }
          ]
        },
        "identifier": [
          {
            "assigner": {
              "identifier": {
                "system": "https://fhir.nhs.uk/Id/ods-organization-code",
                "value": "699X0"
              }
            },
            "system": "https://fhir.nwgenomics.nhs.uk/iGene/ReportIdentifier",
            "type": {
              "coding": [
                {
                  "code": "FILL",
                  "system": "http://terminology.hl7.org/CodeSystem/v2-0203"
                }
              ]
            },
            "value": "Gen825750"
          }
        ],
        "performer": [
          {
            "identifier": {
              "system": "https://fhir.nhs.uk/Id/ods-organization-code",
              "value": "699X0"
            },
            "type": "Organization"
          }
        ],
        "status": "final",
        "subject": {
          "identifier": {
            "system": "https://fhir.nhs.uk/Id/nhs-number",
            "type": {
              "coding": [
                {
                  "code": "NH",
                  "system": "http://terminology.hl7.org/CodeSystem/v2-0203"
                }
              ]
            },
            "value": "MR"
          },
          "reference": "urn:uuid:e29fe7fa-9a80-49e5-a620-b3a30c2ea23a"
        },
        "valueCodeableConcept": {
          "coding": [
            {
              "code": "LA9633-4",
              "display": "Present",
              "system": "http://loinc.org"
            }
          ]
        }
      }
    },
    {
      "fullUrl": "urn:uuid:190f0c83-b251-4842-8e5c-a71b0c5bae87",
      "resource": {
        "resourceType": "Observation",
        "code": {
          "coding": [
            {
              "code": "81259-4",
              "display": "Probable associated phenotype",
              "system": "http://loinc.org"
            }
          ]
        },
        "identifier": [
          {
            "assigner": {
              "identifier": {
                "system": "https://fhir.nhs.uk/Id/ods-organization-code",
                "value": "699X0"
              }
            },
            "system": "https://fhir.nwgenomics.nhs.uk/iGene/ReportIdentifier",
            "type": {
              "coding": [
                {
                  "code": "FILL",
                  "system": "http://terminology.hl7.org/CodeSystem/v2-0203"
                }
              ]
            },
            "value": "Gen825750"
          }
        ],
        "performer": [
          {
            "identifier": {
              "system": "https://fhir.nhs.uk/Id/ods-organization-code",
              "value": "699X0"
            },
            "type": "Organization"
          }
        ],
        "status": "final",
        "subject": {
          "identifier": {
            "system": "https://fhir.nhs.uk/Id/nhs-number",
            "type": {
              "coding": [
                {
                  "code": "NH",
                  "system": "http://terminology.hl7.org/CodeSystem/v2-0203"
                }
              ]
            },
            "value": "MR"
          },
          "reference": "urn:uuid:e29fe7fa-9a80-49e5-a620-b3a30c2ea23a"
        },
        "valueCodeableConcept": {
          "coding": [
            {
              "code": "C3150667",
              "display": "Early infantile epileptic encephalopathy 10",
              "system": "MedGen-Dis"
            }
          ]
        }
      }
    },
    {
      "fullUrl": "urn:uuid:02ac5b52-f202-4bb0-bd7f-aa5633bfc215",
      "resource": {
        "resourceType": "Observation",
        "code": {
          "coding": [
            {
              "code": "53034-5",
              "display": "Allelic state",
              "system": "http://loinc.org"
            }
          ]
        },
        "identifier": [
          {
            "assigner": {
              "identifier": {
                "system": "https://fhir.nhs.uk/Id/ods-organization-code",
                "value": "699X0"
              }
            },
            "system": "https://fhir.nwgenomics.nhs.uk/iGene/ReportIdentifier",
            "type": {
              "coding": [
                {
                  "code": "FILL",
                  "system": "http://terminology.hl7.org/CodeSystem/v2-0203"
                }
              ]
            },
            "value": "Gen825750"
          }
        ],
        "performer": [
          {
            "identifier": {
              "system": "https://fhir.nhs.uk/Id/ods-organization-code",
              "value": "699X0"
            },
            "type": "Organization"
          }
        ],
        "status": "final",
        "subject": {
          "identifier": {
            "system": "https://fhir.nhs.uk/Id/nhs-number",
            "type": {
              "coding": [
                {
                  "code": "NH",
                  "system": "http://terminology.hl7.org/CodeSystem/v2-0203"
                }
              ]
            },
            "value": "MR"
          },
          "reference": "urn:uuid:e29fe7fa-9a80-49e5-a620-b3a30c2ea23a"
        },
        "valueCodeableConcept": {
          "coding": [
            {
              "code": "LA6706-1",
              "display": "Heterozygous",
              "system": "http://loinc.org"
            }
          ]
        }
      }
    },
    {
      "fullUrl": "urn:uuid:28bfea97-55d0-4a35-b304-b0ea5951f9c6",
      "resource": {
        "resourceType": "ServiceRequest",
        "authoredOn": "2016-08-03",
        "category": [
          {
            "coding": [
              {
                "code": "116148004",
                "system": "http://snomed.info/sct"
              }
            ]
          }
        ],
        "code": {
          "coding": [
            {
              "code": "Sample-Orderable-Test",
              "display": "Infantile Epilepsy Panel  Multi Gene targeted analysis",
              "system": "http://loinc.org"
            }
          ]
        },
        "identifier": [
          {
            "assigner": {
              "identifier": {
                "system": "https://fhir.nhs.uk/Id/ods-organization-code",
                "value": "RBS"
              }
            },
            "type": {
              "coding": [
                {
                  "code": "PLAC",
                  "system": "http://terminology.hl7.org/CodeSystem/v2-0203"
                }
              ]
            },
            "value": "LRI-5280001671"
          }
        ],
        "intent": "order",
        "requester": {
          "identifier": {
            "system": "https://fhir.nhs.uk/Id/ods-organization-code",
            "value": "RBS"
          },
          "type": "Organization"
        },
        "status": "active",
        "subject": {
          "identifier": {
            "system": "https://fhir.nhs.uk/Id/nhs-number",
            "type": {
              "coding": [
                {
                  "code": "NH",
                  "system": "http://terminology.hl7.org/CodeSystem/v2-0203"
                }
              ]
            },
            "value": "MR"
          },
          "reference": "urn:uuid:e29fe7fa-9a80-49e5-a620-b3a30c2ea23a"
        }
      }
    },
    {
      "fullUrl": "urn:uuid:45bc2a06-ee60-4e9a-9f97-1f4eb8e5cfd7",
      "resource": {
        "resourceType": "DiagnosticReport",
        "basedOn": [
          {
            "identifier": {
              "assigner": {
                "identifier": {
                  "system": "https://fhir.nhs.uk/Id/ods-organization-code",
                  "value": "RBS"
                }
              },
              "type": {
                "coding": [
                  {
                    "code": "PLAC",
                    "system": "http://terminology.hl7.org/CodeSystem/v2-0203"
                  }
                ]
              },
              "value": "LRI-5280001671"
            },
            "reference": "urn:uuid:28bfea97-55d0-4a35-b304-b0ea5951f9c6",
            "type": "ServiceRequest"
          }
        ],
        "category": [
          {
            "coding": [
              {
                "code": "GE",
                "system": "http://terminology.hl7.org/CodeSystem/v2-0074"
              }
            ]
          }
        ],
        "code": {
          "coding": [
            {
              "code": "Sample-Orderable-Test",
              "display": "Infantile Epilepsy Panel  Multi Gene targeted analysis",
              "system": "http://loinc.org"
            }
          ]
        },
        "effectiveDateTime": "2016-08-09T16:50:00+00:00",
        "extension": [
          {
            "extension": [
              {
                "url": "reference",
                "valueReference": {
                  "display": "Genetic report",
                  "reference": "urn:uuid:9f428120-f051-4c77-9e6a-3dd6e0a44645",
                  "type": "DocumentReference"
                }
              },
              {
                "url": "type",
                "valueCodeableConcept": {
                  "coding": [
                    {
                      "code": "SCI",
                      "system": "http://hl7.org/fhir/diagnosticreport-relevant-information-types"
                    }
                  ]
                }
              }
            ],
            "url": "http://hl7.org/fhir/5.0/StructureDefinition/extension-DiagnosticReport.supportingInfo"
          }
        ],
        "identifier": [
          {
            "assigner": {
              "identifier": {
                "system": "https://fhir.nhs.uk/Id/ods-organization-code",
                "value": "699X0"
              }
            },
            "system": "https://fhir.nwgenomics.nhs.uk/iGene/ReportIdentifier",
            "type": {
              "coding": [
                {
                  "code": "FILL",
                  "system": "http://terminology.hl7.org/CodeSystem/v2-0203"
                }
              ]
            },
            "value": "Gen825750"
          }
        ],
        "performer": [
          {
            "display": "NHS North West Genomics",
            "identifier": {
              "system": "https://fhir.nhs.uk/Id/ods-organization-code",
              "value": "699X0"
            },
            "type": "Organization"
          }
        ],
        "presentedForm": [
          {
            "contentType": "application/pdf",
            "url": "urn:uuid:ecef83c7-3e30-43d2-acc0-edb4090593a4"
          }
        ],
        "result": [
          {
            "display": "Reason for study",
            "reference": "urn:uuid:f83c9e28-878b-418d-80f3-da7e4976c769",
            "type": "Observation"
          },
          {
            "display": "Genetic disease(s) assessed",
            "reference": "urn:uuid:8401cb35-ade8-4712-91e3-f1403299e1d8",
            "type": "Observation"
          },
          {
            "display": "Genetic disease(s) assessed",
            "reference": "urn:uuid:2585e545-aae9-4599-9e4b-74153d905e5e",
            "type": "Observation"
          },
          {
            "display": "Genetic disease(s) assessed",
            "reference": "urn:uuid:3c1f90ea-1d6a-4889-af6e-fe70113a65f8",
            "type": "Observation"
          },
          {
            "display": "Gene studied",
            "reference": "urn:uuid:c55e3e8d-7356-4132-8c06-9092adab7501",
            "type": "Observation"
          },
          {
            "display": "Gene studied",
            "reference": "urn:uuid:5ad67969-a2f5-4d07-bf4b-cd9baa5994d0",
            "type": "Observation"
          },
          {
            "display": "Gene studied",
            "reference": "urn:uuid:1230f1ef-4c07-4b19-9321-59de18ab6522",
            "type": "Observation"
          },
          {
            "display": "Gene studied",
            "reference": "urn:uuid:f66ce0ed-7bf0-4806-b61b-a4c736caf264",
            "type": "Observation"
          },
          {
            "display": "Gene studied",
            "reference": "urn:uuid:29b50e86-ddbe-4aa4-ae24-4ede2bf4a7f7",
            "type": "Observation"
          },
          {
            "display": "Discrete variation analysis overall interpretation",
            "reference": "urn:uuid:99ec5e19-2a1a-4be8-be37-d4252d371a4c",
            "type": "Observation"
          },
          {
            "display": "Deletion-duplication overall interpretation",
            "reference": "urn:uuid:eac501d9-3bdc-4632-95d1-22de9fab61df",
            "type": "Observation"
          },
          {
            "display": "Description of ranges of DNA sequences examined",
            "reference": "urn:uuid:2ef7ed53-06e2-4956-8ed8-2f9bcc48f089",
            "type": "Observation"
          },
          {
            "display": "Human reference sequence assembly",
            "reference": "urn:uuid:6ffdbee8-ecc9-4ace-8fc3-924447b9a897",
            "type": "Observation"
          },
          {
            "display": "dbSNP version",
            "reference": "urn:uuid:9c902584-d714-4949-b040-47755e8da517",
            "type": "Observation"
          },
          {
            "display": "Variant Category",
            "reference": "urn:uuid:43e9b370-a280-4685-b074-ca300970cd19",
            "type": "Observation"
          },
          {
            "display": "Discrete genetic variant",
            "reference": "urn:uuid:bda33eea-805c-43e6-962c-787f96195f79",
            "type": "Observation"
          },
          {
            "display": "Gene studied",
            "reference": "urn:uuid:c41f30b1-0641-4ff4-9d23-b134315682d3",
            "type": "Observation"
          },
          {
            "display": "Transcript RefSeq ID",
            "reference": "urn:uuid:e4a4bc41-e930-426d-9bf7-c05068c15d27",
            "type": "Observation"
          },
          {
            "display": "Transcript DNA Change (cHGVS)",
            "reference": "urn:uuid:ec7676f9-9204-4c1c-be10-558a1ed99723",
            "type": "Observation"
          },
          {
            "display": "Amino acid change p.HGVS",
            "reference": "urn:uuid:562f35b0-4f46-444e-935e-24d18753e9bc",
            "type": "Observation"
          },
          {
            "display": "DNA change type",
            "reference": "urn:uuid:7f675680-a8c8-4fcc-80d3-0f6e3e0e260a",
            "type": "Observation"
          },
          {
            "display": "Amino acid change type",
            "reference": "urn:uuid:0924ecb0-d9af-46e6-907f-acfaa197537f",
            "type": "Observation"
          },
          {
            "display": "Genomic DNA change (gHGVS)",
            "reference": "urn:uuid:93c093af-bc65-4941-9807-97f074ae3405",
            "type": "Observation"
          },
          {
            "display": "Genomic ref allele",
            "reference": "urn:uuid:387fdfc6-d12f-49fb-b6ed-ca42174fb34d",
            "type": "Observation"
          },
          {
            "display": "Genomic allele start-end",
            "reference": "urn:uuid:7abfd0bf-9ee1-41d5-9bda-713a40cae627",
            "type": "Observation"
          },
          {
            "display": "Genomic alt allele",
            "reference": "urn:uuid:c2b8bfe9-37d0-4898-b71f-064b9d575f72",
            "type": "Observation"
          },
          {
            "display": "dbSNP ID",
            "reference": "urn:uuid:fdcc93ac-5dd7-4adb-b7f6-f716804644db",
            "type": "Observation"
          },
          {
            "display": "Cytogenetic (chromosome) location",
            "reference": "urn:uuid:e3983f9a-2bcd-43df-8f0e-56b8564cfc41",
            "type": "Observation"
          },
          {
            "display": "Genomic source class",
            "reference": "urn:uuid:0e121b7a-9555-45b2-b9e8-f974a54fd406",
            "type": "Observation"
          },
          {
            "display": "Genetic variation clinical significance",
            "reference": "urn:uuid:6861f02f-3079-42cc-a206-58f1a7c719ff",
            "type": "Observation"
          },
          {
            "display": "Genomic variant assessment",
            "reference": "urn:uuid:67cf101c-2581-4f77-b1c8-ae5f6e55c6c8",
            "type": "Observation"
          },
          {
            "display": "Probable associated phenotype",
            "reference": "urn:uuid:5cadafc8-aa05-4133-b314-ee73b1a42b44",
            "type": "Observation"
          },
          {
            "display": "Allelic state",
            "reference": "urn:uuid:f7b69ffe-58ce-4de3-ae75-7d9b0f93efa0",
            "type": "Observation"
          },
          {
            "display": "Variant Category",
            "reference": "urn:uuid:a8577e7d-a354-48b5-91d3-9c0c80ba9a29",
            "type": "Observation"
          },
          {
            "display": "Discrete genetic variant",
            "reference": "urn:uuid:6d671740-29d7-45de-b83f-445ab5289151",
            "type": "Observation"
          },
          {
            "display": "Gene studied",
            "reference": "urn:uuid:4ae4a6aa-1a67-43f3-8c56-83c14afb0d90",
            "type": "Observation"
          },
          {
            "display": "Transcript RefSeq ID",
            "reference": "urn:uuid:b470dd3b-b60c-4ebf-a6c1-7d03a05d10e6",
            "type": "Observation"
          },
          {
            "display": "Transcript DNA Change (cHGVS)",
            "reference": "urn:uuid:d29c1a6a-fac2-4dfd-94dd-066375ad6e08",
            "type": "Observation"
          },
          {
            "display": "Amino acid change p.HGVS",
            "reference": "urn:uuid:4affd9aa-1b6f-4333-a71f-4be05f9cfdc4",
            "type": "Observation"
          },
          {
            "display": "DNA change type",
            "reference": "urn:uuid:15d30284-cfc3-4003-b397-8a9c03c5d215",
            "type": "Observation"
          },
          {
            "display": "Genomic DNA change (gHGVS)",
            "reference": "urn:uuid:9c606989-1520-443e-b0ea-7bd0ca1b6460",
            "type": "Observation"
          },
          {
            "display": "Genomic ref allele",
            "reference": "urn:uuid:f0086a91-372f-417a-9bc1-98e077ab442b",
            "type": "Observation"
          },
          {
            "display": "Genomic allele location",
            "reference": "urn:uuid:d0758b9d-86da-43ae-9571-38d8891cf610",
            "type": "Observation"
          },
          {
            "display": "Genomic alt allele",
            "reference": "urn:uuid:b587f2e7-bb3b-4b9a-b574-762dc5512da8",
            "type": "Observation"
          },
          {
            "display": "dbSNP ID",
            "reference": "urn:uuid:2be6e572-65dc-408e-b4a9-49cbd693fbeb",
            "type": "Observation"
          },
          {
            "display": "Cytogenetic (chromosome) location",
            "reference": "urn:uuid:63250d65-ec64-41d0-95dd-62916727c547",
            "type": "Observation"
          },
          {
            "display": "Genomic source class",
            "reference": "urn:uuid:f7b1b0eb-86b5-4cea-a26c-09650340feca",
            "type": "Observation"
          },
          {
            "display": "Genetic variation clinical significance",
            "reference": "urn:uuid:2cbda023-1801-4f54-acdd-f89b2d048027",
            "type": "Observation"
          },
          {
            "display": "Genomic variant assessment",
            "reference": "urn:uuid:66983987-ae68-4ce3-bebb-b614bad6a382",
            "type": "Observation"
          },
          {
            "display": "Probable associated phenotype",
            "reference": "urn:uuid:d29cfa48-14b9-4fc7-914d-75c6fcec3f43",
            "type": "Observation"
          },
          {
            "display": "Allelic state",
            "reference": "urn:uuid:0261ffba-52e3-4881-9a38-df3181755425",
            "type": "Observation"
          },
          {
            "display": "Variant Category",
            "reference": "urn:uuid:3ba46568-a3b4-40b1-ad2d-4d1863b7b50d",
            "type": "Observation"
          },
          {
            "display": "Discrete genetic variant",
            "reference": "urn:uuid:0b219069-5b78-4ce3-9827-d5438757c52d",
            "type": "Observation"
          },
          {
            "display": "Gene studied",
            "reference": "urn:uuid:14241ad1-a8c1-455c-a4be-c689fff60aa8",
            "type": "Observation"
          },
          {
            "display": "Transcript RefSeq ID",
            "reference": "urn:uuid:daae1fe5-e3d5-4116-bdd0-efad5cdaae1e",
            "type": "Observation"
          },
          {
            "display": "Transcript DNA Change(cHGVS)",
            "reference": "urn:uuid:8cb0cdb9-add8-432a-84d6-cce0abc664e9",
            "type": "Observation"
          },
          {
            "display": "Amino acid change p.HGVS",
            "reference": "urn:uuid:94ec3e41-1ad4-4b83-bfb2-fa1e14003b49",
            "type": "Observation"
          },
          {
            "display": "DNA change type",
            "reference": "urn:uuid:7e1776b0-96c6-48a9-9343-5cec0a63936c",
            "type": "Observation"
          },
          {
            "display": "Amino acid change type",
            "reference": "urn:uuid:d0b50d30-0d1e-40df-a404-2853bb86827d",
            "type": "Observation"
          },
          {
            "display": "Genomic DNA change (gHGVS)",
            "reference": "urn:uuid:4856651b-bf2e-4a43-9e00-765740158e18",
            "type": "Observation"
          },
          {
            "display": "Genomic ref allele",
            "reference": "urn:uuid:0ef4dcb6-7e3f-47ff-993c-293da1ad91e5",
            "type": "Observation"
          },
          {
            "display": "Genomic allele location",
            "reference": "urn:uuid:98ac2f96-2eda-47bb-b355-697a7783435c",
            "type": "Observation"
          },
          {
            "display": "Genomic alt allele",
            "reference": "urn:uuid:891603ef-38e3-41a4-908b-dd7db69c8bf2",
            "type": "Observation"
          },
          {
            "display": "dbSNP ID",
            "reference": "urn:uuid:81557167-79f0-47cf-aea6-a2172258d9d6",
            "type": "Observation"
          },
          {
            "display": "Cytogenetic (chromosome) location",
            "reference": "urn:uuid:261a430e-4c8e-430c-b48f-93d4ddd6299b",
            "type": "Observation"
          },
          {
            "display": "Genomic source class",
            "reference": "urn:uuid:ef594dc3-6c75-45f0-9004-cd622f1bf7e3",
            "type": "Observation"
          },
          {
            "display": "Genetic variation clinical significance",
            "reference": "urn:uuid:5d7a73ab-4487-4ff0-8b99-44fefb983e44",
            "type": "Observation"
          },
          {
            "display": "Genomic variant assessment",
            "reference": "urn:uuid:70359e0b-defb-4b1d-a19f-0e5495fed0e7",
            "type": "Observation"
          },
          {
            "display": "Allelic state",
            "reference": "urn:uuid:a4ef7748-1207-4473-9844-f3a9aca1268d",
            "type": "Observation"
          },
          {
            "display": "Variant Category",
            "reference": "urn:uuid:a260e95f-5ecb-4d41-87f2-89142f471e54",
            "type": "Observation"
          },
          {
            "display": "Discrete genetic variant",
            "reference": "urn:uuid:a855ec46-7056-4073-a78a-3598b888d93d",
            "type": "Observation"
          },
          {
            "display": "Gene studied",
            "reference": "urn:uuid:2aab4beb-21fe-41d4-91b9-9ea31a306580",
            "type": "Observation"
          },
          {
            "display": "Transcript RefSeq ID",
            "reference": "urn:uuid:3e6a2d15-0f22-4e4c-ab82-3a3742b59783",
            "type": "Observation"
          },
          {
            "display": "Transcript DNA Change (cHGVS)",
            "reference": "urn:uuid:5019ef63-6bd9-454e-bf21-b85e82a9bd6e",
            "type": "Observation"
          },
          {
            "display": "Amino acid change p.HGVS",
            "reference": "urn:uuid:200d477b-b106-473e-935b-4b9fdceff022",
            "type": "Observation"
          },
          {
            "display": "DNA change type",
            "reference": "urn:uuid:8fdba1ac-8871-4667-98da-aceb7065a398",
            "type": "Observation"
          },
          {
            "display": "Amino acid change type",
            "reference": "urn:uuid:b5901ca0-6bf5-4943-8216-0e578ac9868a",
            "type": "Observation"
          },
          {
            "display": "Genomic DNA change (gHGVS)",
            "reference": "urn:uuid:0d49b2c2-fb2b-47a5-be2a-da51ec9522c4",
            "type": "Observation"
          },
          {
            "display": "Genomic ref allele",
            "reference": "urn:uuid:2940bb88-d984-4920-9eaf-8bcff92cc5c3",
            "type": "Observation"
          },
          {
            "display": "Genomic allele location",
            "reference": "urn:uuid:0a957d99-96ba-423c-b1d0-a1b779ba25df",
            "type": "Observation"
          },
          {
            "display": "Genomic alt allele",
            "reference": "urn:uuid:44cf0f7e-8732-4f65-92f9-4114b262a699",
            "type": "Observation"
          },
          {
            "display": "dbSNP ID",
            "reference": "urn:uuid:d550b4da-3d2d-47e8-82f6-0fcb78d1386c",
            "type": "Observation"
          },
          {
            "display": "Cytogenetic (chromosome) location",
            "reference": "urn:uuid:4d3a21eb-4ba5-453e-8737-555092ca0aad",
            "type": "Observation"
          },
          {
            "display": "Genomic source class",
            "reference": "urn:uuid:3e636742-8c6f-43c0-b603-0c8fd6392097",
            "type": "Observation"
          },
          {
            "display": "Genetic variation clinical significance",
            "reference": "urn:uuid:1823b2f8-b00f-4631-82a0-e90f90a9fa9e",
            "type": "Observation"
          },
          {
            "display": "Genomic variant assessment",
            "reference": "urn:uuid:9d5d8c96-d8e1-4b62-8d4a-8a57433e2862",
            "type": "Observation"
          },
          {
            "display": "Probable associated phenotype",
            "reference": "urn:uuid:190f0c83-b251-4842-8e5c-a71b0c5bae87",
            "type": "Observation"
          },
          {
            "display": "Allelic state",
            "reference": "urn:uuid:02ac5b52-f202-4bb0-bd7f-aa5633bfc215",
            "type": "Observation"
          }
        ],
        "status": "unknown",
        "subject": {
          "identifier": {
            "system": "https://fhir.nhs.uk/Id/nhs-number",
            "type": {
              "coding": [
                {
                  "code": "NH",
                  "system": "http://terminology.hl7.org/CodeSystem/v2-0203"
                }
              ]
            },
            "value": "MR"
          },
          "reference": "urn:uuid:e29fe7fa-9a80-49e5-a620-b3a30c2ea23a"
        }
      }
    }
  ],
  "identifier": {
    "value": "ORIE-251014-9"
  },
  "timestamp": "2025-10-14T15:59:42+00:00",
  "type": "message"
}