{
  "resourceType": "Bundle",
  "entry": [
    {
      "fullUrl": "urn:uuid:b95ee5d4-79a0-484a-b274-6c096fffe297",
      "resource": {
        "resourceType": "MessageHeader",
        "destination": [
          {
            "endpoint": "https//fhir.mft.nhs.uk/Endpoint/EPIC",
            "receiver": {
              "identifier": {
                "system": "https://fhir.nhs.uk/Id/ods-organization-code",
                "value": "699X0"
              }
            }
          }
        ],
        "eventCoding": {
          "code": "R01",
          "system": "http://terminology.hl7.org/CodeSystem/v2-0003"
        },
        "focus": [
          {
            "reference": "urn:uuid:57b53ba1-3cb8-4644-9355-0d02d90a5a9b"
          }
        ],
        "sender": {
          "identifier": {
            "system": "https://fhir.nhs.uk/Id/ods-organization-code",
            "value": "699X0"
          }
        },
        "source": {
          "endpoint": "https://fhir.nwgenomics.nhs.uk/Endpoint/IGENE",
          "software": "NW GLH"
        }
      }
    },
    {
      "fullUrl": "urn:uuid:dfedf354-fb63-475c-8b8d-d949008abbad",
      "resource": {
        "resourceType": "Patient",
        "address": [
          {
            "postalCode": "LA1 1PJ"
          }
        ],
        "birthDate": "1970-07-27",
        "gender": "male",
        "identifier": [
          {
            "system": "https://fhir.nhs.uk/Id/nhs-number",
            "type": {
              "coding": [
                {
                  "code": "NH",
                  "system": "http://terminology.hl7.org/CodeSystem/v2-0203"
                }
              ]
            },
            "value": "9737383214"
          }
        ],
        "name": [
          {
            "family": "LANCASTER",
            "given": [
              "Jaime"
            ]
          }
        ]
      }
    },
    {
      "fullUrl": "urn:uuid:057355ab-1918-46ac-8ce4-c2bd23adcfcb",
      "resource": {
        "resourceType": "Observation",
        "code": {
          "coding": [
            {
              "code": "53577-3",
              "display": "Reason for study",
              "system": "http://loinc.org"
            }
          ]
        },
        "identifier": [
          {
            "assigner": {
              "identifier": {
                "system": "https://fhir.nhs.uk/Id/ods-organization-code",
                "value": "699X0"
              }
            },
            "system": "https://fhir.nwgenomics.nhs.uk/iGene/ReportIdentifier",
            "type": {
              "coding": [
                {
                  "code": "FILL",
                  "system": "http://terminology.hl7.org/CodeSystem/v2-0203"
                }
              ]
            },
            "value": "Gen825750"
          }
        ],
        "performer": [
          {
            "identifier": {
              "system": "https://fhir.nhs.uk/Id/ods-organization-code",
              "value": "699X0"
            },
            "type": "Organization"
          }
        ],
        "status": "final",
        "subject": {
          "identifier": {
            "system": "https://fhir.nhs.uk/Id/nhs-number",
            "type": {
              "coding": [
                {
                  "code": "NH",
                  "system": "http://terminology.hl7.org/CodeSystem/v2-0203"
                }
              ]
            },
            "value": "9737383214"
          },
          "reference": "urn:uuid:dfedf354-fb63-475c-8b8d-d949008abbad"
        },
        "valueString": "Patient may be carrier for cystic fibrosis"
      }
    },
    {
      "fullUrl": "urn:uuid:87e73c20-3c45-43b8-99a0-b81db979d1f6",
      "resource": {
        "resourceType": "Observation",
        "code": {
          "coding": [
            {
              "code": "51967-8",
              "display": "Genetic disease(s) assessed",
              "system": "http://loinc.org"
            }
          ]
        },
        "identifier": [
          {
            "assigner": {
              "identifier": {
                "system": "https://fhir.nhs.uk/Id/ods-organization-code",
                "value": "699X0"
              }
            },
            "system": "https://fhir.nwgenomics.nhs.uk/iGene/ReportIdentifier",
            "type": {
              "coding": [
                {
                  "code": "FILL",
                  "system": "http://terminology.hl7.org/CodeSystem/v2-0203"
                }
              ]
            },
            "value": "Gen825750"
          }
        ],
        "performer": [
          {
            "identifier": {
              "system": "https://fhir.nhs.uk/Id/ods-organization-code",
              "value": "699X0"
            },
            "type": "Organization"
          }
        ],
        "status": "final",
        "subject": {
          "identifier": {
            "system": "https://fhir.nhs.uk/Id/nhs-number",
            "type": {
              "coding": [
                {
                  "code": "NH",
                  "system": "http://terminology.hl7.org/CodeSystem/v2-0203"
                }
              ]
            },
            "value": "9737383214"
          },
          "reference": "urn:uuid:dfedf354-fb63-475c-8b8d-d949008abbad"
        },
        "valueCodeableConcept": {
          "coding": [
            {
              "code": "C0010674",
              "display": "Cystic fibrosis",
              "system": "MedGen-Dis"
            }
          ]
        }
      }
    },
    {
      "fullUrl": "urn:uuid:f784504f-5d16-4408-82ce-5e2088bceb25",
      "resource": {
        "resourceType": "Observation",
        "code": {
          "coding": [
            {
              "code": "51958-7",
              "display": "Transcript reference sequence [Identifier]",
              "system": "http://loinc.org"
            }
          ]
        },
        "identifier": [
          {
            "assigner": {
              "identifier": {
                "system": "https://fhir.nhs.uk/Id/ods-organization-code",
                "value": "699X0"
              }
            },
            "system": "https://fhir.nwgenomics.nhs.uk/iGene/ReportIdentifier",
            "type": {
              "coding": [
                {
                  "code": "FILL",
                  "system": "http://terminology.hl7.org/CodeSystem/v2-0203"
                }
              ]
            },
            "value": "Gen825750"
          }
        ],
        "performer": [
          {
            "identifier": {
              "system": "https://fhir.nhs.uk/Id/ods-organization-code",
              "value": "699X0"
            },
            "type": "Organization"
          }
        ],
        "status": "final",
        "subject": {
          "identifier": {
            "system": "https://fhir.nhs.uk/Id/nhs-number",
            "type": {
              "coding": [
                {
                  "code": "NH",
                  "system": "http://terminology.hl7.org/CodeSystem/v2-0203"
                }
              ]
            },
            "value": "9737383214"
          },
          "reference": "urn:uuid:dfedf354-fb63-475c-8b8d-d949008abbad"
        },
        "valueCodeableConcept": {
          "coding": [
            {
              "code": "NM_000492.3",
              "display": "NM_000492.3",
              "system": "http://www.ncbi.nlm.nih.gov/refseq"
            }
          ]
        }
      }
    },
    {
      "fullUrl": "urn:uuid:221a36c4-75bd-4877-8c86-b227b2da785b",
      "resource": {
        "resourceType": "Observation",
        "code": {
          "coding": [
            {
              "code": "48018-6",
              "display": "Gene studied",
              "system": "http://loinc.org"
            }
          ]
        },
        "identifier": [
          {
            "assigner": {
              "identifier": {
                "system": "https://fhir.nhs.uk/Id/ods-organization-code",
                "value": "699X0"
              }
            },
            "system": "https://fhir.nwgenomics.nhs.uk/iGene/ReportIdentifier",
            "type": {
              "coding": [
                {
                  "code": "FILL",
                  "system": "http://terminology.hl7.org/CodeSystem/v2-0203"
                }
              ]
            },
            "value": "Gen825750"
          }
        ],
        "performer": [
          {
            "identifier": {
              "system": "https://fhir.nhs.uk/Id/ods-organization-code",
              "value": "699X0"
            },
            "type": "Organization"
          }
        ],
        "status": "final",
        "subject": {
          "identifier": {
            "system": "https://fhir.nhs.uk/Id/nhs-number",
            "type": {
              "coding": [
                {
                  "code": "NH",
                  "system": "http://terminology.hl7.org/CodeSystem/v2-0203"
                }
              ]
            },
            "value": "9737383214"
          },
          "reference": "urn:uuid:dfedf354-fb63-475c-8b8d-d949008abbad"
        },
        "valueCodeableConcept": {
          "coding": [
            {
              "code": "1884",
              "display": "CFTR",
              "system": "http://www.genenames.org"
            }
          ]
        }
      }
    },
    {
      "fullUrl": "urn:uuid:bfabd5c0-64b6-4cfe-8edd-42f510e48e89",
      "resource": {
        "resourceType": "Observation",
        "code": {
          "coding": [
            {
              "code": "36908-2",
              "display": "Gene mutations tested",
              "system": "http://loinc.org"
            }
          ]
        },
        "identifier": [
          {
            "assigner": {
              "identifier": {
                "system": "https://fhir.nhs.uk/Id/ods-organization-code",
                "value": "699X0"
              }
            },
            "system": "https://fhir.nwgenomics.nhs.uk/iGene/ReportIdentifier",
            "type": {
              "coding": [
                {
                  "code": "FILL",
                  "system": "http://terminology.hl7.org/CodeSystem/v2-0203"
                }
              ]
            },
            "value": "Gen825750"
          }
        ],
        "performer": [
          {
            "identifier": {
              "system": "https://fhir.nhs.uk/Id/ods-organization-code",
              "value": "699X0"
            },
            "type": "Organization"
          }
        ],
        "status": "final",
        "subject": {
          "identifier": {
            "system": "https://fhir.nhs.uk/Id/nhs-number",
            "type": {
              "coding": [
                {
                  "code": "NH",
                  "system": "http://terminology.hl7.org/CodeSystem/v2-0203"
                }
              ]
            },
            "value": "9737383214"
          },
          "reference": "urn:uuid:dfedf354-fb63-475c-8b8d-d949008abbad"
        },
        "valueCodeableConcept": {
          "coding": [
            {
              "code": "7105",
              "display": "NM_000492.3(CFTR):c.1521_1523delCTT (p.Phe508delPhe)",
              "system": "http://www.ncbi.nlm.nih.gov/clinvar"
            }
          ]
        }
      }
    },
    {
      "fullUrl": "urn:uuid:3eeaaffb-f1b5-4083-b734-85affddb9351",
      "resource": {
        "resourceType": "Observation",
        "code": {
          "coding": [
            {
              "code": "36908-2",
              "display": "Gene mutations tested",
              "system": "http://loinc.org"
            }
          ]
        },
        "identifier": [
          {
            "assigner": {
              "identifier": {
                "system": "https://fhir.nhs.uk/Id/ods-organization-code",
                "value": "699X0"
              }
            },
            "system": "https://fhir.nwgenomics.nhs.uk/iGene/ReportIdentifier",
            "type": {
              "coding": [
                {
                  "code": "FILL",
                  "system": "http://terminology.hl7.org/CodeSystem/v2-0203"
                }
              ]
            },
            "value": "Gen825750"
          }
        ],
        "performer": [
          {
            "identifier": {
              "system": "https://fhir.nhs.uk/Id/ods-organization-code",
              "value": "699X0"
            },
            "type": "Organization"
          }
        ],
        "status": "final",
        "subject": {
          "identifier": {
            "system": "https://fhir.nhs.uk/Id/nhs-number",
            "type": {
              "coding": [
                {
                  "code": "NH",
                  "system": "http://terminology.hl7.org/CodeSystem/v2-0203"
                }
              ]
            },
            "value": "9737383214"
          },
          "reference": "urn:uuid:dfedf354-fb63-475c-8b8d-d949008abbad"
        },
        "valueCodeableConcept": {
          "coding": [
            {
              "code": "7106",
              "display": "NM_000492.3(CFTR):c.1519_1521delATC(p.Ile507del)",
              "system": "http://www.ncbi.nlm.nih.gov/clinvar"
            }
          ]
        }
      }
    },
    {
      "fullUrl": "urn:uuid:efa7747a-4f45-4667-bf9b-80982001dd6f",
      "resource": {
        "resourceType": "Observation",
        "code": {
          "coding": [
            {
              "code": "36908-2",
              "display": "Gene mutations tested",
              "system": "http://loinc.org"
            }
          ]
        },
        "identifier": [
          {
            "assigner": {
              "identifier": {
                "system": "https://fhir.nhs.uk/Id/ods-organization-code",
                "value": "699X0"
              }
            },
            "system": "https://fhir.nwgenomics.nhs.uk/iGene/ReportIdentifier",
            "type": {
              "coding": [
                {
                  "code": "FILL",
                  "system": "http://terminology.hl7.org/CodeSystem/v2-0203"
                }
              ]
            },
            "value": "Gen825750"
          }
        ],
        "performer": [
          {
            "identifier": {
              "system": "https://fhir.nhs.uk/Id/ods-organization-code",
              "value": "699X0"
            },
            "type": "Organization"
          }
        ],
        "status": "final",
        "subject": {
          "identifier": {
            "system": "https://fhir.nhs.uk/Id/nhs-number",
            "type": {
              "coding": [
                {
                  "code": "NH",
                  "system": "http://terminology.hl7.org/CodeSystem/v2-0203"
                }
              ]
            },
            "value": "9737383214"
          },
          "reference": "urn:uuid:dfedf354-fb63-475c-8b8d-d949008abbad"
        },
        "valueCodeableConcept": {
          "coding": [
            {
              "code": "7129",
              "display": "NM_000492.3(CFTR):c.3846G>A (p.Trp1282Ter)",
              "system": "http://www.ncbi.nlm.nih.gov/clinvar"
            }
          ]
        }
      }
    },
    {
      "fullUrl": "urn:uuid:cdfdb969-6483-4334-96e4-f26d9b1fc904",
      "resource": {
        "resourceType": "Observation",
        "code": {
          "coding": [
            {
              "code": "36908-2",
              "display": "Gene mutations tested",
              "system": "http://loinc.org"
            }
          ]
        },
        "identifier": [
          {
            "assigner": {
              "identifier": {
                "system": "https://fhir.nhs.uk/Id/ods-organization-code",
                "value": "699X0"
              }
            },
            "system": "https://fhir.nwgenomics.nhs.uk/iGene/ReportIdentifier",
            "type": {
              "coding": [
                {
                  "code": "FILL",
                  "system": "http://terminology.hl7.org/CodeSystem/v2-0203"
                }
              ]
            },
            "value": "Gen825750"
          }
        ],
        "performer": [
          {
            "identifier": {
              "system": "https://fhir.nhs.uk/Id/ods-organization-code",
              "value": "699X0"
            },
            "type": "Organization"
          }
        ],
        "status": "final",
        "subject": {
          "identifier": {
            "system": "https://fhir.nhs.uk/Id/nhs-number",
            "type": {
              "coding": [
                {
                  "code": "NH",
                  "system": "http://terminology.hl7.org/CodeSystem/v2-0203"
                }
              ]
            },
            "value": "9737383214"
          },
          "reference": "urn:uuid:dfedf354-fb63-475c-8b8d-d949008abbad"
        },
        "valueCodeableConcept": {
          "coding": [
            {
              "code": "38799",
              "display": "NM_000492.3(CFTR):c.489+1G>T",
              "system": "http://www.ncbi.nlm.nih.gov/clinvar"
            }
          ]
        }
      }
    },
    {
      "fullUrl": "urn:uuid:d0f0f153-9873-4289-984a-17ca5c0a3931",
      "resource": {
        "resourceType": "Observation",
        "code": {
          "coding": [
            {
              "code": "36908-2",
              "display": "Gene mutations tested",
              "system": "http://loinc.org"
            }
          ]
        },
        "identifier": [
          {
            "assigner": {
              "identifier": {
                "system": "https://fhir.nhs.uk/Id/ods-organization-code",
                "value": "699X0"
              }
            },
            "system": "https://fhir.nwgenomics.nhs.uk/iGene/ReportIdentifier",
            "type": {
              "coding": [
                {
                  "code": "FILL",
                  "system": "http://terminology.hl7.org/CodeSystem/v2-0203"
                }
              ]
            },
            "value": "Gen825750"
          }
        ],
        "performer": [
          {
            "identifier": {
              "system": "https://fhir.nhs.uk/Id/ods-organization-code",
              "value": "699X0"
            },
            "type": "Organization"
          }
        ],
        "status": "final",
        "subject": {
          "identifier": {
            "system": "https://fhir.nhs.uk/Id/nhs-number",
            "type": {
              "coding": [
                {
                  "code": "NH",
                  "system": "http://terminology.hl7.org/CodeSystem/v2-0203"
                }
              ]
            },
            "value": "9737383214"
          },
          "reference": "urn:uuid:dfedf354-fb63-475c-8b8d-d949008abbad"
        },
        "valueCodeableConcept": {
          "coding": [
            {
              "code": "Gly542Ter",
              "display": "Gly542Ter",
              "system": "http://varnomen.hgvs.org"
            }
          ]
        }
      }
    },
    {
      "fullUrl": "urn:uuid:7fcb2b7b-e82c-4c1f-b25d-3248cbeaf562",
      "resource": {
        "resourceType": "Observation",
        "code": {
          "coding": [
            {
              "code": "36908-2",
              "display": "Gene mutations tested",
              "system": "http://loinc.org"
            }
          ]
        },
        "identifier": [
          {
            "assigner": {
              "identifier": {
                "system": "https://fhir.nhs.uk/Id/ods-organization-code",
                "value": "699X0"
              }
            },
            "system": "https://fhir.nwgenomics.nhs.uk/iGene/ReportIdentifier",
            "type": {
              "coding": [
                {
                  "code": "FILL",
                  "system": "http://terminology.hl7.org/CodeSystem/v2-0203"
                }
              ]
            },
            "value": "Gen825750"
          }
        ],
        "performer": [
          {
            "identifier": {
              "system": "https://fhir.nhs.uk/Id/ods-organization-code",
              "value": "699X0"
            },
            "type": "Organization"
          }
        ],
        "status": "final",
        "subject": {
          "identifier": {
            "system": "https://fhir.nhs.uk/Id/nhs-number",
            "type": {
              "coding": [
                {
                  "code": "NH",
                  "system": "http://terminology.hl7.org/CodeSystem/v2-0203"
                }
              ]
            },
            "value": "9737383214"
          },
          "reference": "urn:uuid:dfedf354-fb63-475c-8b8d-d949008abbad"
        },
        "valueCodeableConcept": {
          "coding": [
            {
              "code": "Arg117His",
              "display": "Arg117His",
              "system": "http://varnomen.hgvs.org"
            }
          ]
        }
      }
    },
    {
      "fullUrl": "urn:uuid:37af75f9-5ab5-4089-b013-4e66cdbc7685",
      "resource": {
        "resourceType": "Observation",
        "code": {
          "coding": [
            {
              "code": "36908-2",
              "display": "Gene mutations tested",
              "system": "http://loinc.org"
            }
          ]
        },
        "identifier": [
          {
            "assigner": {
              "identifier": {
                "system": "https://fhir.nhs.uk/Id/ods-organization-code",
                "value": "699X0"
              }
            },
            "system": "https://fhir.nwgenomics.nhs.uk/iGene/ReportIdentifier",
            "type": {
              "coding": [
                {
                  "code": "FILL",
                  "system": "http://terminology.hl7.org/CodeSystem/v2-0203"
                }
              ]
            },
            "value": "Gen825750"
          }
        ],
        "performer": [
          {
            "identifier": {
              "system": "https://fhir.nhs.uk/Id/ods-organization-code",
              "value": "699X0"
            },
            "type": "Organization"
          }
        ],
        "status": "final",
        "subject": {
          "identifier": {
            "system": "https://fhir.nhs.uk/Id/nhs-number",
            "type": {
              "coding": [
                {
                  "code": "NH",
                  "system": "http://terminology.hl7.org/CodeSystem/v2-0203"
                }
              ]
            },
            "value": "9737383214"
          },
          "reference": "urn:uuid:dfedf354-fb63-475c-8b8d-d949008abbad"
        },
        "valueCodeableConcept": {
          "coding": [
            {
              "code": "711+1G>T",
              "display": "711+1G>T",
              "system": "http://varnomen.hgvs.org"
            }
          ]
        }
      }
    },
    {
      "fullUrl": "urn:uuid:449a4e6f-216b-4225-a6b8-679864a216a3",
      "resource": {
        "resourceType": "Observation",
        "code": {
          "coding": [
            {
              "code": "36908-2",
              "display": "Gene mutations tested",
              "system": "http://loinc.org"
            }
          ]
        },
        "identifier": [
          {
            "assigner": {
              "identifier": {
                "system": "https://fhir.nhs.uk/Id/ods-organization-code",
                "value": "699X0"
              }
            },
            "system": "https://fhir.nwgenomics.nhs.uk/iGene/ReportIdentifier",
            "type": {
              "coding": [
                {
                  "code": "FILL",
                  "system": "http://terminology.hl7.org/CodeSystem/v2-0203"
                }
              ]
            },
            "value": "Gen825750"
          }
        ],
        "performer": [
          {
            "identifier": {
              "system": "https://fhir.nhs.uk/Id/ods-organization-code",
              "value": "699X0"
            },
            "type": "Organization"
          }
        ],
        "status": "final",
        "subject": {
          "identifier": {
            "system": "https://fhir.nhs.uk/Id/nhs-number",
            "type": {
              "coding": [
                {
                  "code": "NH",
                  "system": "http://terminology.hl7.org/CodeSystem/v2-0203"
                }
              ]
            },
            "value": "9737383214"
          },
          "reference": "urn:uuid:dfedf354-fb63-475c-8b8d-d949008abbad"
        },
        "valueCodeableConcept": {
          "coding": [
            {
              "code": "Asn1303Lys(C>A)",
              "display": "Asn1303Lys(C>A)",
              "system": "http://varnomen.hgvs.org"
            }
          ]
        }
      }
    },
    {
      "fullUrl": "urn:uuid:de008340-60b9-4cd8-9d75-38f396c8509b",
      "resource": {
        "resourceType": "Observation",
        "code": {
          "coding": [
            {
              "code": "36908-2",
              "display": "Gene mutations tested",
              "system": "http://loinc.org"
            }
          ]
        },
        "identifier": [
          {
            "assigner": {
              "identifier": {
                "system": "https://fhir.nhs.uk/Id/ods-organization-code",
                "value": "699X0"
              }
            },
            "system": "https://fhir.nwgenomics.nhs.uk/iGene/ReportIdentifier",
            "type": {
              "coding": [
                {
                  "code": "FILL",
                  "system": "http://terminology.hl7.org/CodeSystem/v2-0203"
                }
              ]
            },
            "value": "Gen825750"
          }
        ],
        "performer": [
          {
            "identifier": {
              "system": "https://fhir.nhs.uk/Id/ods-organization-code",
              "value": "699X0"
            },
            "type": "Organization"
          }
        ],
        "status": "final",
        "subject": {
          "identifier": {
            "system": "https://fhir.nhs.uk/Id/nhs-number",
            "type": {
              "coding": [
                {
                  "code": "NH",
                  "system": "http://terminology.hl7.org/CodeSystem/v2-0203"
                }
              ]
            },
            "value": "9737383214"
          },
          "reference": "urn:uuid:dfedf354-fb63-475c-8b8d-d949008abbad"
        },
        "valueCodeableConcept": {
          "coding": [
            {
              "code": "Arg334Trp",
              "display": "Arg334Trp",
              "system": "http://varnomen.hgvs.org"
            }
          ]
        }
      }
    },
    {
      "fullUrl": "urn:uuid:8a2a70b1-4699-4192-800d-2aadd41d52ca",
      "resource": {
        "resourceType": "Observation",
        "code": {
          "coding": [
            {
              "code": "36908-2",
              "display": "Gene mutations tested",
              "system": "http://loinc.org"
            }
          ]
        },
        "identifier": [
          {
            "assigner": {
              "identifier": {
                "system": "https://fhir.nhs.uk/Id/ods-organization-code",
                "value": "699X0"
              }
            },
            "system": "https://fhir.nwgenomics.nhs.uk/iGene/ReportIdentifier",
            "type": {
              "coding": [
                {
                  "code": "FILL",
                  "system": "http://terminology.hl7.org/CodeSystem/v2-0203"
                }
              ]
            },
            "value": "Gen825750"
          }
        ],
        "performer": [
          {
            "identifier": {
              "system": "https://fhir.nhs.uk/Id/ods-organization-code",
              "value": "699X0"
            },
            "type": "Organization"
          }
        ],
        "status": "final",
        "subject": {
          "identifier": {
            "system": "https://fhir.nhs.uk/Id/nhs-number",
            "type": {
              "coding": [
                {
                  "code": "NH",
                  "system": "http://terminology.hl7.org/CodeSystem/v2-0203"
                }
              ]
            },
            "value": "9737383214"
          },
          "reference": "urn:uuid:dfedf354-fb63-475c-8b8d-d949008abbad"
        },
        "valueCodeableConcept": {
          "coding": [
            {
              "code": "Arg347Pro",
              "display": "Arg347Pro",
              "system": "http://varnomen.hgvs.org"
            }
          ]
        }
      }
    },
    {
      "fullUrl": "urn:uuid:1811c077-e251-46aa-a404-79fe1a0c59e5",
      "resource": {
        "resourceType": "Observation",
        "code": {
          "coding": [
            {
              "code": "36908-2",
              "display": "Gene mutations tested",
              "system": "http://loinc.org"
            }
          ]
        },
        "identifier": [
          {
            "assigner": {
              "identifier": {
                "system": "https://fhir.nhs.uk/Id/ods-organization-code",
                "value": "699X0"
              }
            },
            "system": "https://fhir.nwgenomics.nhs.uk/iGene/ReportIdentifier",
            "type": {
              "coding": [
                {
                  "code": "FILL",
                  "system": "http://terminology.hl7.org/CodeSystem/v2-0203"
                }
              ]
            },
            "value": "Gen825750"
          }
        ],
        "performer": [
          {
            "identifier": {
              "system": "https://fhir.nhs.uk/Id/ods-organization-code",
              "value": "699X0"
            },
            "type": "Organization"
          }
        ],
        "status": "final",
        "subject": {
          "identifier": {
            "system": "https://fhir.nhs.uk/Id/nhs-number",
            "type": {
              "coding": [
                {
                  "code": "NH",
                  "system": "http://terminology.hl7.org/CodeSystem/v2-0203"
                }
              ]
            },
            "value": "9737383214"
          },
          "reference": "urn:uuid:dfedf354-fb63-475c-8b8d-d949008abbad"
        },
        "valueCodeableConcept": {
          "coding": [
            {

            }
          ]
        }
      }
    },
    {
      "fullUrl": "urn:uuid:5cd80d46-7bb9-48c9-8711-fc4e4b7f0a03",
      "resource": {
        "resourceType": "Observation",
        "code": {
          "coding": [
            {
              "code": "51968-6",
              "display": "Discrete variation analysis overall interpretation",
              "system": "http://loinc.org"
            }
          ]
        },
        "identifier": [
          {
            "assigner": {
              "identifier": {
                "system": "https://fhir.nhs.uk/Id/ods-organization-code",
                "value": "699X0"
              }
            },
            "system": "https://fhir.nwgenomics.nhs.uk/iGene/ReportIdentifier",
            "type": {
              "coding": [
                {
                  "code": "FILL",
                  "system": "http://terminology.hl7.org/CodeSystem/v2-0203"
                }
              ]
            },
            "value": "Gen825750"
          }
        ],
        "performer": [
          {
            "identifier": {
              "system": "https://fhir.nhs.uk/Id/ods-organization-code",
              "value": "699X0"
            },
            "type": "Organization"
          }
        ],
        "status": "final",
        "subject": {
          "identifier": {
            "system": "https://fhir.nhs.uk/Id/nhs-number",
            "type": {
              "coding": [
                {
                  "code": "NH",
                  "system": "http://terminology.hl7.org/CodeSystem/v2-0203"
                }
              ]
            },
            "value": "9737383214"
          },
          "reference": "urn:uuid:dfedf354-fb63-475c-8b8d-d949008abbad"
        },
        "valueCodeableConcept": {
          "coding": [
            {
              "code": "LA6576-8",
              "display": "Positive",
              "system": "http://loinc.org"
            }
          ]
        }
      }
    },
    {
      "fullUrl": "urn:uuid:a087f5f5-b0c5-4bec-81eb-9cc983e07a0b",
      "resource": {
        "resourceType": "Binary",
        "contentType": "application/pdf",
        "data": ""
      }
    },
    {
      "fullUrl": "urn:uuid:af992464-d316-4ef7-95db-821140422c62",
      "resource": {
        "resourceType": "DocumentReference",
        "content": [
          {
            "attachment": {
              "contentType": "application/pdf",
              "url": "urn:uuid:a087f5f5-b0c5-4bec-81eb-9cc983e07a0b"
            }
          }
        ],
        "context": {
          "period": {
            "end": "2016-08-09T16:50:00+00:00",
            "start": "2016-08-09T16:50:00+00:00"
          },
          "related": [
            {
              "identifier": {
                "assigner": {
                  "identifier": {
                    "system": "https://fhir.nhs.uk/Id/ods-organization-code",
                    "value": "RBS"
                  }
                },
                "type": {
                  "coding": [
                    {
                      "code": "PLAC",
                      "system": "http://terminology.hl7.org/CodeSystem/v2-0203"
                    }
                  ]
                },
                "value": "LRI-1000152867"
              },
              "reference": "urn:uuid:88ad8b3c-138e-44d3-a353-67f65878adc7",
              "type": "ServiceRequest"
            },
            {
              "identifier": {
                "assigner": {
                  "identifier": {
                    "system": "https://fhir.nhs.uk/Id/ods-organization-code",
                    "value": "699X0"
                  }
                },
                "system": "https://fhir.nwgenomics.nhs.uk/iGene/ReportIdentifier",
                "type": {
                  "coding": [
                    {
                      "code": "FILL",
                      "system": "http://terminology.hl7.org/CodeSystem/v2-0203"
                    }
                  ]
                },
                "value": "Gen825750"
              },
              "reference": "urn:uuid:57b53ba1-3cb8-4644-9355-0d02d90a5a9b",
              "type": "DiagnosticReport"
            }
          ]
        },
        "custodian": {
          "identifier": {
            "system": "https://fhir.nhs.uk/Id/ods-organization-code",
            "value": "699X0"
          },
          "type": "Organization"
        },
        "date": "2016-08-09T16:50:00+00:00",
        "identifier": [
          {
            "assigner": {
              "identifier": {
                "system": "https://fhir.nhs.uk/Id/ods-organization-code",
                "value": "699X0"
              }
            },
            "system": "https://fhir.nwgenomics.nhs.uk/iGene/ReportIdentifier",
            "type": {
              "coding": [
                {
                  "code": "FILL",
                  "system": "http://terminology.hl7.org/CodeSystem/v2-0203"
                }
              ]
            },
            "value": "Gen825750"
          }
        ],
        "status": "current",
        "subject": {
          "identifier": {
            "system": "https://fhir.nhs.uk/Id/nhs-number",
            "type": {
              "coding": [
                {
                  "code": "NH",
                  "system": "http://terminology.hl7.org/CodeSystem/v2-0203"
                }
              ]
            },
            "value": "9737383214"
          },
          "reference": "urn:uuid:dfedf354-fb63-475c-8b8d-d949008abbad"
        },
        "type": {
          "coding": [
            {
              "code": "1054161000000101",
              "display": "Genetic report",
              "system": "http://snomed.info/sct"
            }
          ]
        }
      }
    },
    {
      "fullUrl": "urn:uuid:df58916f-e8a3-44cb-a4ec-632de7cfdba7",
      "resource": {
        "resourceType": "Observation",
        "code": {
          "coding": [
            {
              "code": "62374-4",
              "display": "Human reference sequence assembly",
              "system": "http://loinc.org"
            }
          ]
        },
        "identifier": [
          {
            "assigner": {
              "identifier": {
                "system": "https://fhir.nhs.uk/Id/ods-organization-code",
                "value": "699X0"
              }
            },
            "system": "https://fhir.nwgenomics.nhs.uk/iGene/ReportIdentifier",
            "type": {
              "coding": [
                {
                  "code": "FILL",
                  "system": "http://terminology.hl7.org/CodeSystem/v2-0203"
                }
              ]
            },
            "value": "Gen825750"
          }
        ],
        "performer": [
          {
            "identifier": {
              "system": "https://fhir.nhs.uk/Id/ods-organization-code",
              "value": "699X0"
            },
            "type": "Organization"
          }
        ],
        "status": "final",
        "subject": {
          "identifier": {
            "system": "https://fhir.nhs.uk/Id/nhs-number",
            "type": {
              "coding": [
                {
                  "code": "NH",
                  "system": "http://terminology.hl7.org/CodeSystem/v2-0203"
                }
              ]
            },
            "value": "9737383214"
          },
          "reference": "urn:uuid:dfedf354-fb63-475c-8b8d-d949008abbad"
        },
        "valueCodeableConcept": {
          "coding": [
            {
              "code": "LA14029-5",
              "display": "GRCh37",
              "system": "http://loinc.org"
            }
          ]
        }
      }
    },
    {
      "fullUrl": "urn:uuid:ae1689b1-a3cf-40b7-b5db-8a612282f1ad",
      "resource": {
        "resourceType": "Observation",
        "code": {
          "coding": [
            {
              "code": "82115-7",
              "display": "dbSNP version",
              "system": "http://loinc.org"
            }
          ]
        },
        "identifier": [
          {
            "assigner": {
              "identifier": {
                "system": "https://fhir.nhs.uk/Id/ods-organization-code",
                "value": "699X0"
              }
            },
            "system": "https://fhir.nwgenomics.nhs.uk/iGene/ReportIdentifier",
            "type": {
              "coding": [
                {
                  "code": "FILL",
                  "system": "http://terminology.hl7.org/CodeSystem/v2-0203"
                }
              ]
            },
            "value": "Gen825750"
          }
        ],
        "performer": [
          {
            "identifier": {
              "system": "https://fhir.nhs.uk/Id/ods-organization-code",
              "value": "699X0"
            },
            "type": "Organization"
          }
        ],
        "status": "final",
        "subject": {
          "identifier": {
            "system": "https://fhir.nhs.uk/Id/nhs-number",
            "type": {
              "coding": [
                {
                  "code": "NH",
                  "system": "http://terminology.hl7.org/CodeSystem/v2-0203"
                }
              ]
            },
            "value": "9737383214"
          },
          "reference": "urn:uuid:dfedf354-fb63-475c-8b8d-d949008abbad"
        },
        "valueQuantity": {
          "system": "http://unitsofmeasure.org",
          "unit": "Attributes of Discrete Genetic Variants: Report Section 2",
          "value": 147
        }
      }
    },
    {
      "fullUrl": "urn:uuid:67a18d3d-8f2b-4539-8e54-3abfe6774cd7",
      "resource": {
        "resourceType": "Observation",
        "code": {
          "coding": [
            {
              "code": "83005-9",
              "display": "Variant Category",
              "system": "http://loinc.org"
            }
          ]
        },
        "identifier": [
          {
            "assigner": {
              "identifier": {
                "system": "https://fhir.nhs.uk/Id/ods-organization-code",
                "value": "699X0"
              }
            },
            "system": "https://fhir.nwgenomics.nhs.uk/iGene/ReportIdentifier",
            "type": {
              "coding": [
                {
                  "code": "FILL",
                  "system": "http://terminology.hl7.org/CodeSystem/v2-0203"
                }
              ]
            },
            "value": "Gen825750"
          }
        ],
        "performer": [
          {
            "identifier": {
              "system": "https://fhir.nhs.uk/Id/ods-organization-code",
              "value": "699X0"
            },
            "type": "Organization"
          }
        ],
        "status": "final",
        "subject": {
          "identifier": {
            "system": "https://fhir.nhs.uk/Id/nhs-number",
            "type": {
              "coding": [
                {
                  "code": "NH",
                  "system": "http://terminology.hl7.org/CodeSystem/v2-0203"
                }
              ]
            },
            "value": "9737383214"
          },
          "reference": "urn:uuid:dfedf354-fb63-475c-8b8d-d949008abbad"
        },
        "valueCodeableConcept": {
          "coding": [
            {
              "code": "LA26801-3",
              "display": "Simple Variant",
              "system": "http://loinc.org"
            }
          ]
        }
      }
    },
    {
      "fullUrl": "urn:uuid:c5cb7f7f-20c7-42f8-900b-e36c63f8ca76",
      "resource": {
        "resourceType": "Observation",
        "code": {
          "coding": [
            {
              "code": "81252-9",
              "display": "Discrete genetic variant",
              "system": "http://loinc.org"
            }
          ]
        },
        "identifier": [
          {
            "assigner": {
              "identifier": {
                "system": "https://fhir.nhs.uk/Id/ods-organization-code",
                "value": "699X0"
              }
            },
            "system": "https://fhir.nwgenomics.nhs.uk/iGene/ReportIdentifier",
            "type": {
              "coding": [
                {
                  "code": "FILL",
                  "system": "http://terminology.hl7.org/CodeSystem/v2-0203"
                }
              ]
            },
            "value": "Gen825750"
          }
        ],
        "performer": [
          {
            "identifier": {
              "system": "https://fhir.nhs.uk/Id/ods-organization-code",
              "value": "699X0"
            },
            "type": "Organization"
          }
        ],
        "status": "final",
        "subject": {
          "identifier": {
            "system": "https://fhir.nhs.uk/Id/nhs-number",
            "type": {
              "coding": [
                {
                  "code": "NH",
                  "system": "http://terminology.hl7.org/CodeSystem/v2-0203"
                }
              ]
            },
            "value": "9737383214"
          },
          "reference": "urn:uuid:dfedf354-fb63-475c-8b8d-d949008abbad"
        },
        "valueCodeableConcept": {
          "coding": [
            {
              "code": "7105",
              "display": "NM_000492.3(CFTR):c.1521_1523delCTT (p.Phe508delPhe)",
              "system": "http://www.ncbi.nlm.nih.gov/clinvar"
            }
          ]
        }
      }
    },
    {
      "fullUrl": "urn:uuid:b0b07db1-fb2b-405f-aac4-5d117b30f205",
      "resource": {
        "resourceType": "Observation",
        "code": {
          "coding": [
            {
              "code": "48018-6",
              "display": "Gene studied",
              "system": "http://loinc.org"
            }
          ]
        },
        "identifier": [
          {
            "assigner": {
              "identifier": {
                "system": "https://fhir.nhs.uk/Id/ods-organization-code",
                "value": "699X0"
              }
            },
            "system": "https://fhir.nwgenomics.nhs.uk/iGene/ReportIdentifier",
            "type": {
              "coding": [
                {
                  "code": "FILL",
                  "system": "http://terminology.hl7.org/CodeSystem/v2-0203"
                }
              ]
            },
            "value": "Gen825750"
          }
        ],
        "performer": [
          {
            "identifier": {
              "system": "https://fhir.nhs.uk/Id/ods-organization-code",
              "value": "699X0"
            },
            "type": "Organization"
          }
        ],
        "status": "final",
        "subject": {
          "identifier": {
            "system": "https://fhir.nhs.uk/Id/nhs-number",
            "type": {
              "coding": [
                {
                  "code": "NH",
                  "system": "http://terminology.hl7.org/CodeSystem/v2-0203"
                }
              ]
            },
            "value": "9737383214"
          },
          "reference": "urn:uuid:dfedf354-fb63-475c-8b8d-d949008abbad"
        },
        "valueCodeableConcept": {
          "coding": [
            {
              "code": "1884",
              "display": "CFTR",
              "system": "http://www.genenames.org"
            }
          ]
        }
      }
    },
    {
      "fullUrl": "urn:uuid:0e40a8cd-efea-4250-8424-7b7c7ddf302b",
      "resource": {
        "resourceType": "Observation",
        "code": {
          "coding": [
            {
              "code": "51958-7",
              "display": "Transcript RefSeq ID",
              "system": "http://loinc.org"
            }
          ]
        },
        "identifier": [
          {
            "assigner": {
              "identifier": {
                "system": "https://fhir.nhs.uk/Id/ods-organization-code",
                "value": "699X0"
              }
            },
            "system": "https://fhir.nwgenomics.nhs.uk/iGene/ReportIdentifier",
            "type": {
              "coding": [
                {
                  "code": "FILL",
                  "system": "http://terminology.hl7.org/CodeSystem/v2-0203"
                }
              ]
            },
            "value": "Gen825750"
          }
        ],
        "performer": [
          {
            "identifier": {
              "system": "https://fhir.nhs.uk/Id/ods-organization-code",
              "value": "699X0"
            },
            "type": "Organization"
          }
        ],
        "status": "final",
        "subject": {
          "identifier": {
            "system": "https://fhir.nhs.uk/Id/nhs-number",
            "type": {
              "coding": [
                {
                  "code": "NH",
                  "system": "http://terminology.hl7.org/CodeSystem/v2-0203"
                }
              ]
            },
            "value": "9737383214"
          },
          "reference": "urn:uuid:dfedf354-fb63-475c-8b8d-d949008abbad"
        },
        "valueCodeableConcept": {
          "coding": [
            {
              "code": "NM_000492.3",
              "display": "NM_000492.3",
              "system": "http://www.ncbi.nlm.nih.gov/refseq"
            }
          ]
        }
      }
    },
    {
      "fullUrl": "urn:uuid:cbacee30-d273-4122-8e00-5f1a09757072",
      "resource": {
        "resourceType": "Observation",
        "code": {
          "coding": [
            {
              "code": "41103-3",
              "display": "Transcript DNA Change (cHGVS)",
              "system": "http://loinc.org"
            }
          ]
        },
        "identifier": [
          {
            "assigner": {
              "identifier": {
                "system": "https://fhir.nhs.uk/Id/ods-organization-code",
                "value": "699X0"
              }
            },
            "system": "https://fhir.nwgenomics.nhs.uk/iGene/ReportIdentifier",
            "type": {
              "coding": [
                {
                  "code": "FILL",
                  "system": "http://terminology.hl7.org/CodeSystem/v2-0203"
                }
              ]
            },
            "value": "Gen825750"
          }
        ],
        "performer": [
          {
            "identifier": {
              "system": "https://fhir.nhs.uk/Id/ods-organization-code",
              "value": "699X0"
            },
            "type": "Organization"
          }
        ],
        "status": "final",
        "subject": {
          "identifier": {
            "system": "https://fhir.nhs.uk/Id/nhs-number",
            "type": {
              "coding": [
                {
                  "code": "NH",
                  "system": "http://terminology.hl7.org/CodeSystem/v2-0203"
                }
              ]
            },
            "value": "9737383214"
          },
          "reference": "urn:uuid:dfedf354-fb63-475c-8b8d-d949008abbad"
        },
        "valueCodeableConcept": {
          "coding": [
            {
              "code": "c.1521_1523delCTT",
              "display": "c.1521_1523delCTT",
              "system": "http://varnomen.hgvs.org"
            }
          ]
        }
      }
    },
    {
      "fullUrl": "urn:uuid:b7e93c5f-f6d2-49f3-a2fd-ed5430ea7495",
      "resource": {
        "resourceType": "Observation",
        "code": {
          "coding": [
            {
              "code": "48005-3",
              "display": "Amino acid change p.HGVS",
              "system": "http://loinc.org"
            }
          ]
        },
        "identifier": [
          {
            "assigner": {
              "identifier": {
                "system": "https://fhir.nhs.uk/Id/ods-organization-code",
                "value": "699X0"
              }
            },
            "system": "https://fhir.nwgenomics.nhs.uk/iGene/ReportIdentifier",
            "type": {
              "coding": [
                {
                  "code": "FILL",
                  "system": "http://terminology.hl7.org/CodeSystem/v2-0203"
                }
              ]
            },
            "value": "Gen825750"
          }
        ],
        "performer": [
          {
            "identifier": {
              "system": "https://fhir.nhs.uk/Id/ods-organization-code",
              "value": "699X0"
            },
            "type": "Organization"
          }
        ],
        "status": "final",
        "subject": {
          "identifier": {
            "system": "https://fhir.nhs.uk/Id/nhs-number",
            "type": {
              "coding": [
                {
                  "code": "NH",
                  "system": "http://terminology.hl7.org/CodeSystem/v2-0203"
                }
              ]
            },
            "value": "9737383214"
          },
          "reference": "urn:uuid:dfedf354-fb63-475c-8b8d-d949008abbad"
        },
        "valueCodeableConcept": {
          "coding": [
            {
              "code": "p.Phe508delPhe",
              "display": "p.Phe508delPhe",
              "system": "http://varnomen.hgvs.org"
            }
          ]
        }
      }
    },
    {
      "fullUrl": "urn:uuid:6742b3a2-2f93-4f78-a220-5501c8318900",
      "resource": {
        "resourceType": "Observation",
        "code": {
          "coding": [
            {
              "code": "48019-4",
              "display": "DNA change type",
              "system": "http://loinc.org"
            }
          ]
        },
        "identifier": [
          {
            "assigner": {
              "identifier": {
                "system": "https://fhir.nhs.uk/Id/ods-organization-code",
                "value": "699X0"
              }
            },
            "system": "https://fhir.nwgenomics.nhs.uk/iGene/ReportIdentifier",
            "type": {
              "coding": [
                {
                  "code": "FILL",
                  "system": "http://terminology.hl7.org/CodeSystem/v2-0203"
                }
              ]
            },
            "value": "Gen825750"
          }
        ],
        "performer": [
          {
            "identifier": {
              "system": "https://fhir.nhs.uk/Id/ods-organization-code",
              "value": "699X0"
            },
            "type": "Organization"
          }
        ],
        "status": "final",
        "subject": {
          "identifier": {
            "system": "https://fhir.nhs.uk/Id/nhs-number",
            "type": {
              "coding": [
                {
                  "code": "NH",
                  "system": "http://terminology.hl7.org/CodeSystem/v2-0203"
                }
              ]
            },
            "value": "9737383214"
          },
          "reference": "urn:uuid:dfedf354-fb63-475c-8b8d-d949008abbad"
        },
        "valueCodeableConcept": {
          "coding": [
            {
              "code": "LA6692-3l",
              "display": "deletion",
              "system": "http://loinc.org"
            }
          ]
        }
      }
    },
    {
      "fullUrl": "urn:uuid:18e287c1-746b-426f-a8ef-030205390ec5",
      "resource": {
        "resourceType": "Observation",
        "code": {
          "coding": [
            {
              "code": "48013-7",
              "display": "Genomic reference sequence ID",
              "system": "http://loinc.org"
            }
          ]
        },
        "identifier": [
          {
            "assigner": {
              "identifier": {
                "system": "https://fhir.nhs.uk/Id/ods-organization-code",
                "value": "699X0"
              }
            },
            "system": "https://fhir.nwgenomics.nhs.uk/iGene/ReportIdentifier",
            "type": {
              "coding": [
                {
                  "code": "FILL",
                  "system": "http://terminology.hl7.org/CodeSystem/v2-0203"
                }
              ]
            },
            "value": "Gen825750"
          }
        ],
        "performer": [
          {
            "identifier": {
              "system": "https://fhir.nhs.uk/Id/ods-organization-code",
              "value": "699X0"
            },
            "type": "Organization"
          }
        ],
        "status": "final",
        "subject": {
          "identifier": {
            "system": "https://fhir.nhs.uk/Id/nhs-number",
            "type": {
              "coding": [
                {
                  "code": "NH",
                  "system": "http://terminology.hl7.org/CodeSystem/v2-0203"
                }
              ]
            },
            "value": "9737383214"
          },
          "reference": "urn:uuid:dfedf354-fb63-475c-8b8d-d949008abbad"
        },
        "valueCodeableConcept": {
          "coding": [
            {
              "code": "NG_016465.4:g.98809_98811delCTT",
              "display": "NG_016465.4:g.98809_98811delCTT",
              "system": "http://www.ncbi.nlm.nih.gov/refseq"
            }
          ]
        }
      }
    },
    {
      "fullUrl": "urn:uuid:693cea8b-806f-42d8-9674-02a2203c66f3",
      "resource": {
        "resourceType": "Observation",
        "code": {
          "coding": [
            {
              "code": "81290-9",
              "display": "Genomic DNA change(gHGVS)",
              "system": "http://loinc.org"
            }
          ]
        },
        "identifier": [
          {
            "assigner": {
              "identifier": {
                "system": "https://fhir.nhs.uk/Id/ods-organization-code",
                "value": "699X0"
              }
            },
            "system": "https://fhir.nwgenomics.nhs.uk/iGene/ReportIdentifier",
            "type": {
              "coding": [
                {
                  "code": "FILL",
                  "system": "http://terminology.hl7.org/CodeSystem/v2-0203"
                }
              ]
            },
            "value": "Gen825750"
          }
        ],
        "performer": [
          {
            "identifier": {
              "system": "https://fhir.nhs.uk/Id/ods-organization-code",
              "value": "699X0"
            },
            "type": "Organization"
          }
        ],
        "status": "final",
        "subject": {
          "identifier": {
            "system": "https://fhir.nhs.uk/Id/nhs-number",
            "type": {
              "coding": [
                {
                  "code": "NH",
                  "system": "http://terminology.hl7.org/CodeSystem/v2-0203"
                }
              ]
            },
            "value": "9737383214"
          },
          "reference": "urn:uuid:dfedf354-fb63-475c-8b8d-d949008abbad"
        },
        "valueCodeableConcept": {
          "coding": [
            {
              "code": "NC_000007.13",
              "display": "NC_000007.13",
              "system": "http://varnomen.hgvs.org"
            }
          ]
        }
      }
    },
    {
      "fullUrl": "urn:uuid:99922dc5-9e29-402a-94cb-f878b06e34ff",
      "resource": {
        "resourceType": "Observation",
        "code": {
          "coding": [
            {
              "code": "69547-8",
              "display": "Genomic ref allele",
              "system": "http://loinc.org"
            }
          ]
        },
        "identifier": [
          {
            "assigner": {
              "identifier": {
                "system": "https://fhir.nhs.uk/Id/ods-organization-code",
                "value": "699X0"
              }
            },
            "system": "https://fhir.nwgenomics.nhs.uk/iGene/ReportIdentifier",
            "type": {
              "coding": [
                {
                  "code": "FILL",
                  "system": "http://terminology.hl7.org/CodeSystem/v2-0203"
                }
              ]
            },
            "value": "Gen825750"
          }
        ],
        "performer": [
          {
            "identifier": {
              "system": "https://fhir.nhs.uk/Id/ods-organization-code",
              "value": "699X0"
            },
            "type": "Organization"
          }
        ],
        "status": "final",
        "subject": {
          "identifier": {
            "system": "https://fhir.nhs.uk/Id/nhs-number",
            "type": {
              "coding": [
                {
                  "code": "NH",
                  "system": "http://terminology.hl7.org/CodeSystem/v2-0203"
                }
              ]
            },
            "value": "9737383214"
          },
          "reference": "urn:uuid:dfedf354-fb63-475c-8b8d-d949008abbad"
        },
        "valueString": "CTT"
      }
    },
    {
      "fullUrl": "urn:uuid:7e5e47c9-0e66-4323-8dcf-d4e7cc15c333",
      "resource": {
        "resourceType": "Observation",
        "code": {
          "coding": [
            {
              "code": "81254-5",
              "display": "Genomic allele start-end",
              "system": "http://loinc.org"
            }
          ]
        },
        "identifier": [
          {
            "assigner": {
              "identifier": {
                "system": "https://fhir.nhs.uk/Id/ods-organization-code",
                "value": "699X0"
              }
            },
            "system": "https://fhir.nwgenomics.nhs.uk/iGene/ReportIdentifier",
            "type": {
              "coding": [
                {
                  "code": "FILL",
                  "system": "http://terminology.hl7.org/CodeSystem/v2-0203"
                }
              ]
            },
            "value": "Gen825750"
          }
        ],
        "performer": [
          {
            "identifier": {
              "system": "https://fhir.nhs.uk/Id/ods-organization-code",
              "value": "699X0"
            },
            "type": "Organization"
          }
        ],
        "status": "final",
        "subject": {
          "identifier": {
            "system": "https://fhir.nhs.uk/Id/nhs-number",
            "type": {
              "coding": [
                {
                  "code": "NH",
                  "system": "http://terminology.hl7.org/CodeSystem/v2-0203"
                }
              ]
            },
            "value": "9737383214"
          },
          "reference": "urn:uuid:dfedf354-fb63-475c-8b8d-d949008abbad"
        }
      }
    },
    {
      "fullUrl": "urn:uuid:88acd0a1-02d1-4b84-b773-4210d151ee65",
      "resource": {
        "resourceType": "Observation",
        "code": {
          "coding": [
            {
              "code": "69551-0",
              "display": "Genomic alt allele",
              "system": "http://loinc.org"
            }
          ]
        },
        "identifier": [
          {
            "assigner": {
              "identifier": {
                "system": "https://fhir.nhs.uk/Id/ods-organization-code",
                "value": "699X0"
              }
            },
            "system": "https://fhir.nwgenomics.nhs.uk/iGene/ReportIdentifier",
            "type": {
              "coding": [
                {
                  "code": "FILL",
                  "system": "http://terminology.hl7.org/CodeSystem/v2-0203"
                }
              ]
            },
            "value": "Gen825750"
          }
        ],
        "performer": [
          {
            "identifier": {
              "system": "https://fhir.nhs.uk/Id/ods-organization-code",
              "value": "699X0"
            },
            "type": "Organization"
          }
        ],
        "status": "final",
        "subject": {
          "identifier": {
            "system": "https://fhir.nhs.uk/Id/nhs-number",
            "type": {
              "coding": [
                {
                  "code": "NH",
                  "system": "http://terminology.hl7.org/CodeSystem/v2-0203"
                }
              ]
            },
            "value": "9737383214"
          },
          "reference": "urn:uuid:dfedf354-fb63-475c-8b8d-d949008abbad"
        },
        "valueString": "-"
      }
    },
    {
      "fullUrl": "urn:uuid:4480fcb5-e120-4d6d-b20f-ee45ec3fa2c8",
      "resource": {
        "resourceType": "Observation",
        "code": {
          "coding": [
            {
              "code": "81255-2",
              "display": "dbSNP ID",
              "system": "http://loinc.org"
            }
          ]
        },
        "identifier": [
          {
            "assigner": {
              "identifier": {
                "system": "https://fhir.nhs.uk/Id/ods-organization-code",
                "value": "699X0"
              }
            },
            "system": "https://fhir.nwgenomics.nhs.uk/iGene/ReportIdentifier",
            "type": {
              "coding": [
                {
                  "code": "FILL",
                  "system": "http://terminology.hl7.org/CodeSystem/v2-0203"
                }
              ]
            },
            "value": "Gen825750"
          }
        ],
        "performer": [
          {
            "identifier": {
              "system": "https://fhir.nhs.uk/Id/ods-organization-code",
              "value": "699X0"
            },
            "type": "Organization"
          }
        ],
        "status": "final",
        "subject": {
          "identifier": {
            "system": "https://fhir.nhs.uk/Id/nhs-number",
            "type": {
              "coding": [
                {
                  "code": "NH",
                  "system": "http://terminology.hl7.org/CodeSystem/v2-0203"
                }
              ]
            },
            "value": "9737383214"
          },
          "reference": "urn:uuid:dfedf354-fb63-475c-8b8d-d949008abbad"
        },
        "valueCodeableConcept": {
          "coding": [
            {
              "code": "rs113993960",
              "display": "rs113993960",
              "system": "http://www.ncbi.nlm.nih.gov/projects/SNP"
            }
          ]
        }
      }
    },
    {
      "fullUrl": "urn:uuid:1882209c-9dce-4c62-a075-814bec1ce0ec",
      "resource": {
        "resourceType": "Observation",
        "code": {
          "coding": [
            {
              "code": "48001-2",
              "display": "Cytogenetic (chromosome) location",
              "system": "http://loinc.org"
            }
          ]
        },
        "identifier": [
          {
            "assigner": {
              "identifier": {
                "system": "https://fhir.nhs.uk/Id/ods-organization-code",
                "value": "699X0"
              }
            },
            "system": "https://fhir.nwgenomics.nhs.uk/iGene/ReportIdentifier",
            "type": {
              "coding": [
                {
                  "code": "FILL",
                  "system": "http://terminology.hl7.org/CodeSystem/v2-0203"
                }
              ]
            },
            "value": "Gen825750"
          }
        ],
        "performer": [
          {
            "identifier": {
              "system": "https://fhir.nhs.uk/Id/ods-organization-code",
              "value": "699X0"
            },
            "type": "Organization"
          }
        ],
        "status": "final",
        "subject": {
          "identifier": {
            "system": "https://fhir.nhs.uk/Id/nhs-number",
            "type": {
              "coding": [
                {
                  "code": "NH",
                  "system": "http://terminology.hl7.org/CodeSystem/v2-0203"
                }
              ]
            },
            "value": "9737383214"
          },
          "reference": "urn:uuid:dfedf354-fb63-475c-8b8d-d949008abbad"
        },
        "valueCodeableConcept": {
          "coding": [
            {
              "code": "7q31.2",
              "display": "7q31.2",
              "system": "Chrom-Loc"
            }
          ]
        }
      }
    },
    {
      "fullUrl": "urn:uuid:1c3becd8-db06-4d30-8690-fdddce5092ae",
      "resource": {
        "resourceType": "Observation",
        "code": {
          "coding": [
            {
              "code": "48002-0",
              "display": "Genomic source class",
              "system": "http://loinc.org"
            }
          ]
        },
        "identifier": [
          {
            "assigner": {
              "identifier": {
                "system": "https://fhir.nhs.uk/Id/ods-organization-code",
                "value": "699X0"
              }
            },
            "system": "https://fhir.nwgenomics.nhs.uk/iGene/ReportIdentifier",
            "type": {
              "coding": [
                {
                  "code": "FILL",
                  "system": "http://terminology.hl7.org/CodeSystem/v2-0203"
                }
              ]
            },
            "value": "Gen825750"
          }
        ],
        "performer": [
          {
            "identifier": {
              "system": "https://fhir.nhs.uk/Id/ods-organization-code",
              "value": "699X0"
            },
            "type": "Organization"
          }
        ],
        "status": "final",
        "subject": {
          "identifier": {
            "system": "https://fhir.nhs.uk/Id/nhs-number",
            "type": {
              "coding": [
                {
                  "code": "NH",
                  "system": "http://terminology.hl7.org/CodeSystem/v2-0203"
                }
              ]
            },
            "value": "9737383214"
          },
          "reference": "urn:uuid:dfedf354-fb63-475c-8b8d-d949008abbad"
        },
        "valueCodeableConcept": {
          "coding": [
            {
              "code": "LA6683-2",
              "display": "Germline",
              "system": "http://loinc.org"
            }
          ]
        }
      }
    },
    {
      "fullUrl": "urn:uuid:9903d04e-3b80-4880-a38e-9202984e5782",
      "resource": {
        "resourceType": "Observation",
        "code": {
          "coding": [
            {
              "code": "53037-8",
              "display": "Genetic variation Clinical significance",
              "system": "http://loinc.org"
            }
          ]
        },
        "identifier": [
          {
            "assigner": {
              "identifier": {
                "system": "https://fhir.nhs.uk/Id/ods-organization-code",
                "value": "699X0"
              }
            },
            "system": "https://fhir.nwgenomics.nhs.uk/iGene/ReportIdentifier",
            "type": {
              "coding": [
                {
                  "code": "FILL",
                  "system": "http://terminology.hl7.org/CodeSystem/v2-0203"
                }
              ]
            },
            "value": "Gen825750"
          }
        ],
        "performer": [
          {
            "identifier": {
              "system": "https://fhir.nhs.uk/Id/ods-organization-code",
              "value": "699X0"
            },
            "type": "Organization"
          }
        ],
        "status": "final",
        "subject": {
          "identifier": {
            "system": "https://fhir.nhs.uk/Id/nhs-number",
            "type": {
              "coding": [
                {
                  "code": "NH",
                  "system": "http://terminology.hl7.org/CodeSystem/v2-0203"
                }
              ]
            },
            "value": "9737383214"
          },
          "reference": "urn:uuid:dfedf354-fb63-475c-8b8d-d949008abbad"
        },
        "valueCodeableConcept": {
          "coding": [
            {
              "code": "LA6668-3",
              "display": "Pathogenic",
              "system": "http://loinc.org"
            }
          ]
        }
      }
    },
    {
      "fullUrl": "urn:uuid:a31e19f2-0517-4a4d-b4f7-3cffa7034606",
      "resource": {
        "resourceType": "Observation",
        "code": {
          "coding": [
            {
              "code": "69548-6",
              "display": "Genomic variant assessment",
              "system": "http://loinc.org"
            }
          ]
        },
        "identifier": [
          {
            "assigner": {
              "identifier": {
                "system": "https://fhir.nhs.uk/Id/ods-organization-code",
                "value": "699X0"
              }
            },
            "system": "https://fhir.nwgenomics.nhs.uk/iGene/ReportIdentifier",
            "type": {
              "coding": [
                {
                  "code": "FILL",
                  "system": "http://terminology.hl7.org/CodeSystem/v2-0203"
                }
              ]
            },
            "value": "Gen825750"
          }
        ],
        "performer": [
          {
            "identifier": {
              "system": "https://fhir.nhs.uk/Id/ods-organization-code",
              "value": "699X0"
            },
            "type": "Organization"
          }
        ],
        "status": "final",
        "subject": {
          "identifier": {
            "system": "https://fhir.nhs.uk/Id/nhs-number",
            "type": {
              "coding": [
                {
                  "code": "NH",
                  "system": "http://terminology.hl7.org/CodeSystem/v2-0203"
                }
              ]
            },
            "value": "9737383214"
          },
          "reference": "urn:uuid:dfedf354-fb63-475c-8b8d-d949008abbad"
        },
        "valueCodeableConcept": {
          "coding": [
            {
              "code": "LA9633-4",
              "display": "Present",
              "system": "http://loinc.org"
            }
          ]
        }
      }
    },
    {
      "fullUrl": "urn:uuid:1e33d46a-4224-4635-b277-56f1fe3b7575",
      "resource": {
        "resourceType": "Observation",
        "code": {
          "coding": [
            {
              "code": "81259-4",
              "display": "Probable associated phenotype",
              "system": "http://loinc.org"
            }
          ]
        },
        "identifier": [
          {
            "assigner": {
              "identifier": {
                "system": "https://fhir.nhs.uk/Id/ods-organization-code",
                "value": "699X0"
              }
            },
            "system": "https://fhir.nwgenomics.nhs.uk/iGene/ReportIdentifier",
            "type": {
              "coding": [
                {
                  "code": "FILL",
                  "system": "http://terminology.hl7.org/CodeSystem/v2-0203"
                }
              ]
            },
            "value": "Gen825750"
          }
        ],
        "performer": [
          {
            "identifier": {
              "system": "https://fhir.nhs.uk/Id/ods-organization-code",
              "value": "699X0"
            },
            "type": "Organization"
          }
        ],
        "status": "final",
        "subject": {
          "identifier": {
            "system": "https://fhir.nhs.uk/Id/nhs-number",
            "type": {
              "coding": [
                {
                  "code": "NH",
                  "system": "http://terminology.hl7.org/CodeSystem/v2-0203"
                }
              ]
            },
            "value": "9737383214"
          },
          "reference": "urn:uuid:dfedf354-fb63-475c-8b8d-d949008abbad"
        },
        "valueCodeableConcept": {
          "coding": [
            {
              "code": "C0010674",
              "display": "Cystic fibrosis",
              "system": "MedGen-Dis"
            }
          ]
        }
      }
    },
    {
      "fullUrl": "urn:uuid:733c5321-f9d6-4df0-b553-58157d9725cc",
      "resource": {
        "resourceType": "Observation",
        "code": {
          "coding": [
            {
              "code": "53034-5",
              "display": "Allelic state",
              "system": "http://loinc.org"
            }
          ]
        },
        "identifier": [
          {
            "assigner": {
              "identifier": {
                "system": "https://fhir.nhs.uk/Id/ods-organization-code",
                "value": "699X0"
              }
            },
            "system": "https://fhir.nwgenomics.nhs.uk/iGene/ReportIdentifier",
            "type": {
              "coding": [
                {
                  "code": "FILL",
                  "system": "http://terminology.hl7.org/CodeSystem/v2-0203"
                }
              ]
            },
            "value": "Gen825750"
          }
        ],
        "performer": [
          {
            "identifier": {
              "system": "https://fhir.nhs.uk/Id/ods-organization-code",
              "value": "699X0"
            },
            "type": "Organization"
          }
        ],
        "status": "final",
        "subject": {
          "identifier": {
            "system": "https://fhir.nhs.uk/Id/nhs-number",
            "type": {
              "coding": [
                {
                  "code": "NH",
                  "system": "http://terminology.hl7.org/CodeSystem/v2-0203"
                }
              ]
            },
            "value": "9737383214"
          },
          "reference": "urn:uuid:dfedf354-fb63-475c-8b8d-d949008abbad"
        },
        "valueCodeableConcept": {
          "coding": [
            {
              "code": "LA6706-1",
              "display": "Heterozygous",
              "system": "http://loinc.org"
            }
          ]
        }
      }
    },
    {
      "fullUrl": "urn:uuid:88ad8b3c-138e-44d3-a353-67f65878adc7",
      "resource": {
        "resourceType": "ServiceRequest",
        "authoredOn": "2016-08-03",
        "category": [
          {
            "coding": [
              {
                "code": "116148004",
                "system": "http://snomed.info/sct"
              }
            ]
          }
        ],
        "code": {
          "coding": [
            {
              "code": "R185.1",
              "display": "Cystic fibrosis carrier testing",
              "system": "https://fhir.nhs.uk/CodeSystem/England-GenomicTestDirectory"
            }
          ]
        },
        "identifier": [
          {
            "assigner": {
              "identifier": {
                "system": "https://fhir.nhs.uk/Id/ods-organization-code",
                "value": "RBS"
              }
            },
            "type": {
              "coding": [
                {
                  "code": "PLAC",
                  "system": "http://terminology.hl7.org/CodeSystem/v2-0203"
                }
              ]
            },
            "value": "LRI-1000152867"
          }
        ],
        "intent": "order",
        "requester": {
          "display": "Alder Hey",
          "identifier": {
            "system": "https://fhir.nhs.uk/Id/ods-organization-code",
            "value": "RBS"
          },
          "type": "Organization"
        },
        "status": "active",
        "subject": {
          "identifier": {
            "system": "https://fhir.nhs.uk/Id/nhs-number",
            "type": {
              "coding": [
                {
                  "code": "NH",
                  "system": "http://terminology.hl7.org/CodeSystem/v2-0203"
                }
              ]
            },
            "value": "9737383214"
          },
          "reference": "urn:uuid:dfedf354-fb63-475c-8b8d-d949008abbad"
        }
      }
    },
    {
      "fullUrl": "urn:uuid:57b53ba1-3cb8-4644-9355-0d02d90a5a9b",
      "resource": {
        "resourceType": "DiagnosticReport",
        "basedOn": [
          {
            "identifier": {
              "assigner": {
                "identifier": {
                  "system": "https://fhir.nhs.uk/Id/ods-organization-code",
                  "value": "RBS"
                }
              },
              "type": {
                "coding": [
                  {
                    "code": "PLAC",
                    "system": "http://terminology.hl7.org/CodeSystem/v2-0203"
                  }
                ]
              },
              "value": "LRI-1000152867"
            },
            "reference": "urn:uuid:88ad8b3c-138e-44d3-a353-67f65878adc7",
            "type": "ServiceRequest"
          }
        ],
        "category": [
          {
            "coding": [
              {
                "code": "GE",
                "system": "http://terminology.hl7.org/CodeSystem/v2-0074"
              }
            ]
          }
        ],
        "code": {
          "coding": [
            {
              "code": "R185.1",
              "display": "Cystic fibrosis carrier testing",
              "system": "https://fhir.nhs.uk/CodeSystem/England-GenomicTestDirectory"
            }
          ]
        },
        "effectiveDateTime": "2016-08-09T16:50:00+00:00",
        "extension": [
          {
            "extension": [
              {
                "url": "reference",
                "valueReference": {
                  "display": "Genetic report",
                  "reference": "urn:uuid:af992464-d316-4ef7-95db-821140422c62",
                  "type": "DocumentReference"
                }
              },
              {
                "url": "type",
                "valueCodeableConcept": {
                  "coding": [
                    {
                      "code": "SCI",
                      "system": "http://hl7.org/fhir/diagnosticreport-relevant-information-types"
                    }
                  ]
                }
              }
            ],
            "url": "http://hl7.org/fhir/5.0/StructureDefinition/extension-DiagnosticReport.supportingInfo"
          }
        ],
        "identifier": [
          {
            "assigner": {
              "identifier": {
                "system": "https://fhir.nhs.uk/Id/ods-organization-code",
                "value": "699X0"
              }
            },
            "system": "https://fhir.nwgenomics.nhs.uk/iGene/ReportIdentifier",
            "type": {
              "coding": [
                {
                  "code": "FILL",
                  "system": "http://terminology.hl7.org/CodeSystem/v2-0203"
                }
              ]
            },
            "value": "Gen825750"
          }
        ],
        "performer": [
          {
            "display": "NHS North West Genomics",
            "identifier": {
              "system": "https://fhir.nhs.uk/Id/ods-organization-code",
              "value": "699X0"
            },
            "type": "Organization"
          }
        ],
        "presentedForm": [
          {
            "contentType": "application/pdf",
            "url": "urn:uuid:a087f5f5-b0c5-4bec-81eb-9cc983e07a0b"
          }
        ],
        "result": [
          {
            "display": "Reason for study",
            "reference": "urn:uuid:057355ab-1918-46ac-8ce4-c2bd23adcfcb",
            "type": "Observation"
          },
          {
            "display": "Genetic disease(s) assessed",
            "reference": "urn:uuid:87e73c20-3c45-43b8-99a0-b81db979d1f6",
            "type": "Observation"
          },
          {
            "display": "Transcript reference sequence [Identifier]",
            "reference": "urn:uuid:f784504f-5d16-4408-82ce-5e2088bceb25",
            "type": "Observation"
          },
          {
            "display": "Gene studied",
            "reference": "urn:uuid:221a36c4-75bd-4877-8c86-b227b2da785b",
            "type": "Observation"
          },
          {
            "display": "Gene mutations tested",
            "reference": "urn:uuid:bfabd5c0-64b6-4cfe-8edd-42f510e48e89",
            "type": "Observation"
          },
          {
            "display": "Gene mutations tested",
            "reference": "urn:uuid:3eeaaffb-f1b5-4083-b734-85affddb9351",
            "type": "Observation"
          },
          {
            "display": "Gene mutations tested",
            "reference": "urn:uuid:efa7747a-4f45-4667-bf9b-80982001dd6f",
            "type": "Observation"
          },
          {
            "display": "Gene mutations tested",
            "reference": "urn:uuid:cdfdb969-6483-4334-96e4-f26d9b1fc904",
            "type": "Observation"
          },
          {
            "display": "Gene mutations tested",
            "reference": "urn:uuid:d0f0f153-9873-4289-984a-17ca5c0a3931",
            "type": "Observation"
          },
          {
            "display": "Gene mutations tested",
            "reference": "urn:uuid:7fcb2b7b-e82c-4c1f-b25d-3248cbeaf562",
            "type": "Observation"
          },
          {
            "display": "Gene mutations tested",
            "reference": "urn:uuid:37af75f9-5ab5-4089-b013-4e66cdbc7685",
            "type": "Observation"
          },
          {
            "display": "Gene mutations tested",
            "reference": "urn:uuid:449a4e6f-216b-4225-a6b8-679864a216a3",
            "type": "Observation"
          },
          {
            "display": "Gene mutations tested",
            "reference": "urn:uuid:de008340-60b9-4cd8-9d75-38f396c8509b",
            "type": "Observation"
          },
          {
            "display": "Gene mutations tested",
            "reference": "urn:uuid:8a2a70b1-4699-4192-800d-2aadd41d52ca",
            "type": "Observation"
          },
          {
            "display": "Gene mutations tested",
            "reference": "urn:uuid:1811c077-e251-46aa-a404-79fe1a0c59e5",
            "type": "Observation"
          },
          {
            "display": "Discrete variation analysis overall interpretation",
            "reference": "urn:uuid:5cd80d46-7bb9-48c9-8711-fc4e4b7f0a03",
            "type": "Observation"
          },
          {
            "display": "Human reference sequence assembly",
            "reference": "urn:uuid:df58916f-e8a3-44cb-a4ec-632de7cfdba7",
            "type": "Observation"
          },
          {
            "display": "dbSNP version",
            "reference": "urn:uuid:ae1689b1-a3cf-40b7-b5db-8a612282f1ad",
            "type": "Observation"
          },
          {
            "display": "Variant Category",
            "reference": "urn:uuid:67a18d3d-8f2b-4539-8e54-3abfe6774cd7",
            "type": "Observation"
          },
          {
            "display": "Discrete genetic variant",
            "reference": "urn:uuid:c5cb7f7f-20c7-42f8-900b-e36c63f8ca76",
            "type": "Observation"
          },
          {
            "display": "Gene studied",
            "reference": "urn:uuid:b0b07db1-fb2b-405f-aac4-5d117b30f205",
            "type": "Observation"
          },
          {
            "display": "Transcript RefSeq ID",
            "reference": "urn:uuid:0e40a8cd-efea-4250-8424-7b7c7ddf302b",
            "type": "Observation"
          },
          {
            "display": "Transcript DNA Change (cHGVS)",
            "reference": "urn:uuid:cbacee30-d273-4122-8e00-5f1a09757072",
            "type": "Observation"
          },
          {
            "display": "Amino acid change p.HGVS",
            "reference": "urn:uuid:b7e93c5f-f6d2-49f3-a2fd-ed5430ea7495",
            "type": "Observation"
          },
          {
            "display": "DNA change type",
            "reference": "urn:uuid:6742b3a2-2f93-4f78-a220-5501c8318900",
            "type": "Observation"
          },
          {
            "display": "Genomic reference sequence ID",
            "reference": "urn:uuid:18e287c1-746b-426f-a8ef-030205390ec5",
            "type": "Observation"
          },
          {
            "display": "Genomic DNA change(gHGVS)",
            "reference": "urn:uuid:693cea8b-806f-42d8-9674-02a2203c66f3",
            "type": "Observation"
          },
          {
            "display": "Genomic ref allele",
            "reference": "urn:uuid:99922dc5-9e29-402a-94cb-f878b06e34ff",
            "type": "Observation"
          },
          {
            "display": "Genomic allele start-end",
            "reference": "urn:uuid:7e5e47c9-0e66-4323-8dcf-d4e7cc15c333",
            "type": "Observation"
          },
          {
            "display": "Genomic alt allele",
            "reference": "urn:uuid:88acd0a1-02d1-4b84-b773-4210d151ee65",
            "type": "Observation"
          },
          {
            "display": "dbSNP ID",
            "reference": "urn:uuid:4480fcb5-e120-4d6d-b20f-ee45ec3fa2c8",
            "type": "Observation"
          },
          {
            "display": "Cytogenetic (chromosome) location",
            "reference": "urn:uuid:1882209c-9dce-4c62-a075-814bec1ce0ec",
            "type": "Observation"
          },
          {
            "display": "Genomic source class",
            "reference": "urn:uuid:1c3becd8-db06-4d30-8690-fdddce5092ae",
            "type": "Observation"
          },
          {
            "display": "Genetic variation Clinical significance",
            "reference": "urn:uuid:9903d04e-3b80-4880-a38e-9202984e5782",
            "type": "Observation"
          },
          {
            "display": "Genomic variant assessment",
            "reference": "urn:uuid:a31e19f2-0517-4a4d-b4f7-3cffa7034606",
            "type": "Observation"
          },
          {
            "display": "Probable associated phenotype",
            "reference": "urn:uuid:1e33d46a-4224-4635-b277-56f1fe3b7575",
            "type": "Observation"
          },
          {
            "display": "Allelic state",
            "reference": "urn:uuid:733c5321-f9d6-4df0-b553-58157d9725cc",
            "type": "Observation"
          }
        ],
        "status": "unknown",
        "subject": {
          "identifier": {
            "system": "https://fhir.nhs.uk/Id/nhs-number",
            "type": {
              "coding": [
                {
                  "code": "NH",
                  "system": "http://terminology.hl7.org/CodeSystem/v2-0203"
                }
              ]
            },
            "value": "9737383214"
          },
          "reference": "urn:uuid:dfedf354-fb63-475c-8b8d-d949008abbad"
        }
      }
    }
  ],
  "identifier": {
    "value": "ORIE-251014-9"
  },
  "timestamp": "2025-10-14T15:59:42+00:00",
  "type": "message"
}