{
  "resourceType": "Bundle",
  "entry": [
    {
      "fullUrl": "urn:uuid:302e720e-4c80-4df6-b828-a3c378ee4d2c",
      "resource": {
        "resourceType": "MessageHeader",
        "destination": [
          {
            "endpoint": "https//fhir.mft.nhs.uk/Endpoint/EPIC",
            "receiver": {
              "identifier": {
                "system": "https://fhir.nhs.uk/Id/ods-organization-code",
                "value": "699X0"
              }
            }
          }
        ],
        "eventCoding": {
          "code": "R01",
          "system": "http://terminology.hl7.org/CodeSystem/v2-0003"
        },
        "focus": [
          {
            "reference": "urn:uuid:96f2c8ff-571a-4bcb-b0b6-d47d5f560b5f"
          }
        ],
        "sender": {
          "identifier": {
            "system": "https://fhir.nhs.uk/Id/ods-organization-code",
            "value": "699X0"
          }
        },
        "source": {
          "endpoint": "https://fhir.nwgenomics.nhs.uk/Endpoint/IGENE",
          "software": "NW GLH"
        }
      }
    },
    {
      "fullUrl": "urn:uuid:4ced114c-1943-4914-b63e-fac68669c9c4",
      "resource": {
        "resourceType": "Patient",
        "address": [
          {
            "postalCode": "LA1 1PJ"
          }
        ],
        "birthDate": "1970-07-27",
        "gender": "male",
        "identifier": [
          {
            "system": "https://fhir.nhs.uk/Id/nhs-number",
            "type": {
              "coding": [
                {
                  "code": "NH",
                  "system": "http://terminology.hl7.org/CodeSystem/v2-0203"
                }
              ]
            },
            "value": "9737383214"
          }
        ],
        "name": [
          {
            "family": "LANCASTER",
            "given": [
              "Jaime"
            ]
          }
        ]
      }
    },
    {
      "fullUrl": "urn:uuid:894eec6a-6977-4144-b170-761b2a17b9ad",
      "resource": {
        "resourceType": "Observation",
        "code": {
          "coding": [
            {
              "code": "53577-3",
              "display": "Reason for study",
              "system": "http://loinc.org"
            }
          ]
        },
        "effectiveDateTime": "2016-08-09T16:50:00+00:00",
        "identifier": [
          {
            "assigner": {
              "identifier": {
                "system": "https://fhir.nhs.uk/Id/ods-organization-code",
                "value": "699X0"
              }
            },
            "system": "https://fhir.nwgenomics.nhs.uk/iGene/ReportIdentifier",
            "type": {
              "coding": [
                {
                  "code": "FILL",
                  "system": "http://terminology.hl7.org/CodeSystem/v2-0203"
                }
              ]
            },
            "value": "Gen825750-LRI2"
          }
        ],
        "performer": [
          {
            "identifier": {
              "system": "https://fhir.nhs.uk/Id/ods-organization-code",
              "value": "699X0"
            },
            "type": "Organization"
          }
        ],
        "status": "final",
        "subject": {
          "identifier": {
            "system": "https://fhir.nhs.uk/Id/nhs-number",
            "type": {
              "coding": [
                {
                  "code": "NH",
                  "system": "http://terminology.hl7.org/CodeSystem/v2-0203"
                }
              ]
            },
            "value": "9737383214"
          },
          "reference": "urn:uuid:4ced114c-1943-4914-b63e-fac68669c9c4"
        },
        "valueString": "Patient may be carrier for cystic fibrosis"
      }
    },
    {
      "fullUrl": "urn:uuid:9fa62b98-9dd5-4b12-ac8e-8c9a82d718b3",
      "resource": {
        "resourceType": "Observation",
        "code": {
          "coding": [
            {
              "code": "51967-8",
              "display": "Genetic disease(s) assessed",
              "system": "http://loinc.org"
            }
          ]
        },
        "effectiveDateTime": "2016-08-09T16:50:00+00:00",
        "identifier": [
          {
            "assigner": {
              "identifier": {
                "system": "https://fhir.nhs.uk/Id/ods-organization-code",
                "value": "699X0"
              }
            },
            "system": "https://fhir.nwgenomics.nhs.uk/iGene/ReportIdentifier",
            "type": {
              "coding": [
                {
                  "code": "FILL",
                  "system": "http://terminology.hl7.org/CodeSystem/v2-0203"
                }
              ]
            },
            "value": "Gen825750-LRI2"
          }
        ],
        "performer": [
          {
            "identifier": {
              "system": "https://fhir.nhs.uk/Id/ods-organization-code",
              "value": "699X0"
            },
            "type": "Organization"
          }
        ],
        "status": "final",
        "subject": {
          "identifier": {
            "system": "https://fhir.nhs.uk/Id/nhs-number",
            "type": {
              "coding": [
                {
                  "code": "NH",
                  "system": "http://terminology.hl7.org/CodeSystem/v2-0203"
                }
              ]
            },
            "value": "9737383214"
          },
          "reference": "urn:uuid:4ced114c-1943-4914-b63e-fac68669c9c4"
        },
        "valueCodeableConcept": {
          "coding": [
            {
              "code": "R185",
              "display": "Cystic fibrosis",
              "system": "https://fhir.nwgenomics.nhs.uk/CodeSystem/GenomicClinicalIndication"
            }
          ]
        }
      }
    },
    {
      "fullUrl": "urn:uuid:30f1747a-df64-4b09-95b4-3a128b6359cf",
      "resource": {
        "resourceType": "Observation",
        "code": {
          "coding": [
            {
              "code": "51958-7",
              "display": "Transcript reference sequence [Identifier]",
              "system": "http://loinc.org"
            }
          ]
        },
        "effectiveDateTime": "2016-08-09T16:50:00+00:00",
        "identifier": [
          {
            "assigner": {
              "identifier": {
                "system": "https://fhir.nhs.uk/Id/ods-organization-code",
                "value": "699X0"
              }
            },
            "system": "https://fhir.nwgenomics.nhs.uk/iGene/ReportIdentifier",
            "type": {
              "coding": [
                {
                  "code": "FILL",
                  "system": "http://terminology.hl7.org/CodeSystem/v2-0203"
                }
              ]
            },
            "value": "Gen825750-LRI2"
          }
        ],
        "performer": [
          {
            "identifier": {
              "system": "https://fhir.nhs.uk/Id/ods-organization-code",
              "value": "699X0"
            },
            "type": "Organization"
          }
        ],
        "status": "final",
        "subject": {
          "identifier": {
            "system": "https://fhir.nhs.uk/Id/nhs-number",
            "type": {
              "coding": [
                {
                  "code": "NH",
                  "system": "http://terminology.hl7.org/CodeSystem/v2-0203"
                }
              ]
            },
            "value": "9737383214"
          },
          "reference": "urn:uuid:4ced114c-1943-4914-b63e-fac68669c9c4"
        },
        "valueCodeableConcept": {
          "coding": [
            {
              "code": "NM_000492.3",
              "display": "NM_000492.3",
              "system": "http://www.ncbi.nlm.nih.gov/refseq"
            }
          ]
        }
      }
    },
    {
      "fullUrl": "urn:uuid:10322acb-2b67-44ef-bfcb-a614669cd32c",
      "resource": {
        "resourceType": "Observation",
        "code": {
          "coding": [
            {
              "code": "48018-6",
              "display": "Gene studied",
              "system": "http://loinc.org"
            }
          ]
        },
        "effectiveDateTime": "2016-08-09T16:50:00+00:00",
        "identifier": [
          {
            "assigner": {
              "identifier": {
                "system": "https://fhir.nhs.uk/Id/ods-organization-code",
                "value": "699X0"
              }
            },
            "system": "https://fhir.nwgenomics.nhs.uk/iGene/ReportIdentifier",
            "type": {
              "coding": [
                {
                  "code": "FILL",
                  "system": "http://terminology.hl7.org/CodeSystem/v2-0203"
                }
              ]
            },
            "value": "Gen825750-LRI2"
          }
        ],
        "performer": [
          {
            "identifier": {
              "system": "https://fhir.nhs.uk/Id/ods-organization-code",
              "value": "699X0"
            },
            "type": "Organization"
          }
        ],
        "status": "final",
        "subject": {
          "identifier": {
            "system": "https://fhir.nhs.uk/Id/nhs-number",
            "type": {
              "coding": [
                {
                  "code": "NH",
                  "system": "http://terminology.hl7.org/CodeSystem/v2-0203"
                }
              ]
            },
            "value": "9737383214"
          },
          "reference": "urn:uuid:4ced114c-1943-4914-b63e-fac68669c9c4"
        },
        "valueCodeableConcept": {
          "coding": [
            {
              "code": "1884",
              "display": "CFTR",
              "system": "http://www.genenames.org"
            }
          ]
        }
      }
    },
    {
      "fullUrl": "urn:uuid:ee16f191-eb42-40f0-8b25-2fb0574d6302",
      "resource": {
        "resourceType": "Observation",
        "code": {
          "coding": [
            {
              "code": "36908-2",
              "display": "Gene mutations tested",
              "system": "http://loinc.org"
            }
          ]
        },
        "effectiveDateTime": "2016-08-09T16:50:00+00:00",
        "identifier": [
          {
            "assigner": {
              "identifier": {
                "system": "https://fhir.nhs.uk/Id/ods-organization-code",
                "value": "699X0"
              }
            },
            "system": "https://fhir.nwgenomics.nhs.uk/iGene/ReportIdentifier",
            "type": {
              "coding": [
                {
                  "code": "FILL",
                  "system": "http://terminology.hl7.org/CodeSystem/v2-0203"
                }
              ]
            },
            "value": "Gen825750-LRI2"
          }
        ],
        "performer": [
          {
            "identifier": {
              "system": "https://fhir.nhs.uk/Id/ods-organization-code",
              "value": "699X0"
            },
            "type": "Organization"
          }
        ],
        "status": "final",
        "subject": {
          "identifier": {
            "system": "https://fhir.nhs.uk/Id/nhs-number",
            "type": {
              "coding": [
                {
                  "code": "NH",
                  "system": "http://terminology.hl7.org/CodeSystem/v2-0203"
                }
              ]
            },
            "value": "9737383214"
          },
          "reference": "urn:uuid:4ced114c-1943-4914-b63e-fac68669c9c4"
        },
        "valueCodeableConcept": {
          "coding": [
            {
              "code": "7105",
              "display": "NM_000492.3(CFTR):c.1521_1523delCTT (p.Phe508delPhe)",
              "system": "http://www.ncbi.nlm.nih.gov/clinvar"
            }
          ]
        }
      }
    },
    {
      "fullUrl": "urn:uuid:517c8626-a95e-437f-a4f5-3b2997999074",
      "resource": {
        "resourceType": "Observation",
        "code": {
          "coding": [
            {
              "code": "36908-2",
              "display": "Gene mutations tested",
              "system": "http://loinc.org"
            }
          ]
        },
        "effectiveDateTime": "2016-08-09T16:50:00+00:00",
        "identifier": [
          {
            "assigner": {
              "identifier": {
                "system": "https://fhir.nhs.uk/Id/ods-organization-code",
                "value": "699X0"
              }
            },
            "system": "https://fhir.nwgenomics.nhs.uk/iGene/ReportIdentifier",
            "type": {
              "coding": [
                {
                  "code": "FILL",
                  "system": "http://terminology.hl7.org/CodeSystem/v2-0203"
                }
              ]
            },
            "value": "Gen825750-LRI2"
          }
        ],
        "performer": [
          {
            "identifier": {
              "system": "https://fhir.nhs.uk/Id/ods-organization-code",
              "value": "699X0"
            },
            "type": "Organization"
          }
        ],
        "status": "final",
        "subject": {
          "identifier": {
            "system": "https://fhir.nhs.uk/Id/nhs-number",
            "type": {
              "coding": [
                {
                  "code": "NH",
                  "system": "http://terminology.hl7.org/CodeSystem/v2-0203"
                }
              ]
            },
            "value": "9737383214"
          },
          "reference": "urn:uuid:4ced114c-1943-4914-b63e-fac68669c9c4"
        },
        "valueCodeableConcept": {
          "coding": [
            {
              "code": "7106",
              "display": "NM_000492.3(CFTR):c.1519_1521delATC(p.Ile507del)",
              "system": "http://www.ncbi.nlm.nih.gov/clinvar"
            }
          ]
        }
      }
    },
    {
      "fullUrl": "urn:uuid:985b826f-9403-4b2a-a7a3-015e9b8d4db9",
      "resource": {
        "resourceType": "Observation",
        "code": {
          "coding": [
            {
              "code": "36908-2",
              "display": "Gene mutations tested",
              "system": "http://loinc.org"
            }
          ]
        },
        "effectiveDateTime": "2016-08-09T16:50:00+00:00",
        "identifier": [
          {
            "assigner": {
              "identifier": {
                "system": "https://fhir.nhs.uk/Id/ods-organization-code",
                "value": "699X0"
              }
            },
            "system": "https://fhir.nwgenomics.nhs.uk/iGene/ReportIdentifier",
            "type": {
              "coding": [
                {
                  "code": "FILL",
                  "system": "http://terminology.hl7.org/CodeSystem/v2-0203"
                }
              ]
            },
            "value": "Gen825750-LRI2"
          }
        ],
        "performer": [
          {
            "identifier": {
              "system": "https://fhir.nhs.uk/Id/ods-organization-code",
              "value": "699X0"
            },
            "type": "Organization"
          }
        ],
        "status": "final",
        "subject": {
          "identifier": {
            "system": "https://fhir.nhs.uk/Id/nhs-number",
            "type": {
              "coding": [
                {
                  "code": "NH",
                  "system": "http://terminology.hl7.org/CodeSystem/v2-0203"
                }
              ]
            },
            "value": "9737383214"
          },
          "reference": "urn:uuid:4ced114c-1943-4914-b63e-fac68669c9c4"
        },
        "valueCodeableConcept": {
          "coding": [
            {
              "code": "7129",
              "display": "NM_000492.3(CFTR):c.3846G>A (p.Trp1282Ter)",
              "system": "http://www.ncbi.nlm.nih.gov/clinvar"
            }
          ]
        }
      }
    },
    {
      "fullUrl": "urn:uuid:a507966e-ac8e-4b0b-9439-80e5f00c62b5",
      "resource": {
        "resourceType": "Observation",
        "code": {
          "coding": [
            {
              "code": "36908-2",
              "display": "Gene mutations tested",
              "system": "http://loinc.org"
            }
          ]
        },
        "effectiveDateTime": "2016-08-09T16:50:00+00:00",
        "identifier": [
          {
            "assigner": {
              "identifier": {
                "system": "https://fhir.nhs.uk/Id/ods-organization-code",
                "value": "699X0"
              }
            },
            "system": "https://fhir.nwgenomics.nhs.uk/iGene/ReportIdentifier",
            "type": {
              "coding": [
                {
                  "code": "FILL",
                  "system": "http://terminology.hl7.org/CodeSystem/v2-0203"
                }
              ]
            },
            "value": "Gen825750-LRI2"
          }
        ],
        "performer": [
          {
            "identifier": {
              "system": "https://fhir.nhs.uk/Id/ods-organization-code",
              "value": "699X0"
            },
            "type": "Organization"
          }
        ],
        "status": "final",
        "subject": {
          "identifier": {
            "system": "https://fhir.nhs.uk/Id/nhs-number",
            "type": {
              "coding": [
                {
                  "code": "NH",
                  "system": "http://terminology.hl7.org/CodeSystem/v2-0203"
                }
              ]
            },
            "value": "9737383214"
          },
          "reference": "urn:uuid:4ced114c-1943-4914-b63e-fac68669c9c4"
        },
        "valueCodeableConcept": {
          "coding": [
            {
              "code": "38799",
              "display": "NM_000492.3(CFTR):c.489+1G>T",
              "system": "http://www.ncbi.nlm.nih.gov/clinvar"
            }
          ]
        }
      }
    },
    {
      "fullUrl": "urn:uuid:1a8b5fa2-f298-4f1a-ac3c-9b7f745e1a5e",
      "resource": {
        "resourceType": "Observation",
        "code": {
          "coding": [
            {
              "code": "36908-2",
              "display": "Gene mutations tested",
              "system": "http://loinc.org"
            }
          ]
        },
        "effectiveDateTime": "2016-08-09T16:50:00+00:00",
        "identifier": [
          {
            "assigner": {
              "identifier": {
                "system": "https://fhir.nhs.uk/Id/ods-organization-code",
                "value": "699X0"
              }
            },
            "system": "https://fhir.nwgenomics.nhs.uk/iGene/ReportIdentifier",
            "type": {
              "coding": [
                {
                  "code": "FILL",
                  "system": "http://terminology.hl7.org/CodeSystem/v2-0203"
                }
              ]
            },
            "value": "Gen825750-LRI2"
          }
        ],
        "performer": [
          {
            "identifier": {
              "system": "https://fhir.nhs.uk/Id/ods-organization-code",
              "value": "699X0"
            },
            "type": "Organization"
          }
        ],
        "status": "final",
        "subject": {
          "identifier": {
            "system": "https://fhir.nhs.uk/Id/nhs-number",
            "type": {
              "coding": [
                {
                  "code": "NH",
                  "system": "http://terminology.hl7.org/CodeSystem/v2-0203"
                }
              ]
            },
            "value": "9737383214"
          },
          "reference": "urn:uuid:4ced114c-1943-4914-b63e-fac68669c9c4"
        },
        "valueCodeableConcept": {
          "coding": [
            {
              "code": "Gly542Ter",
              "display": "Gly542Ter",
              "system": "http://varnomen.hgvs.org"
            }
          ]
        }
      }
    },
    {
      "fullUrl": "urn:uuid:72871746-0159-4051-ba07-69cc4e817b10",
      "resource": {
        "resourceType": "Observation",
        "code": {
          "coding": [
            {
              "code": "36908-2",
              "display": "Gene mutations tested",
              "system": "http://loinc.org"
            }
          ]
        },
        "effectiveDateTime": "2016-08-09T16:50:00+00:00",
        "identifier": [
          {
            "assigner": {
              "identifier": {
                "system": "https://fhir.nhs.uk/Id/ods-organization-code",
                "value": "699X0"
              }
            },
            "system": "https://fhir.nwgenomics.nhs.uk/iGene/ReportIdentifier",
            "type": {
              "coding": [
                {
                  "code": "FILL",
                  "system": "http://terminology.hl7.org/CodeSystem/v2-0203"
                }
              ]
            },
            "value": "Gen825750-LRI2"
          }
        ],
        "performer": [
          {
            "identifier": {
              "system": "https://fhir.nhs.uk/Id/ods-organization-code",
              "value": "699X0"
            },
            "type": "Organization"
          }
        ],
        "status": "final",
        "subject": {
          "identifier": {
            "system": "https://fhir.nhs.uk/Id/nhs-number",
            "type": {
              "coding": [
                {
                  "code": "NH",
                  "system": "http://terminology.hl7.org/CodeSystem/v2-0203"
                }
              ]
            },
            "value": "9737383214"
          },
          "reference": "urn:uuid:4ced114c-1943-4914-b63e-fac68669c9c4"
        },
        "valueCodeableConcept": {
          "coding": [
            {
              "code": "Arg117His",
              "display": "Arg117His",
              "system": "http://varnomen.hgvs.org"
            }
          ]
        }
      }
    },
    {
      "fullUrl": "urn:uuid:5b004c34-941a-40a0-8e9d-a363a9029f0e",
      "resource": {
        "resourceType": "Observation",
        "code": {
          "coding": [
            {
              "code": "36908-2",
              "display": "Gene mutations tested",
              "system": "http://loinc.org"
            }
          ]
        },
        "effectiveDateTime": "2016-08-09T16:50:00+00:00",
        "identifier": [
          {
            "assigner": {
              "identifier": {
                "system": "https://fhir.nhs.uk/Id/ods-organization-code",
                "value": "699X0"
              }
            },
            "system": "https://fhir.nwgenomics.nhs.uk/iGene/ReportIdentifier",
            "type": {
              "coding": [
                {
                  "code": "FILL",
                  "system": "http://terminology.hl7.org/CodeSystem/v2-0203"
                }
              ]
            },
            "value": "Gen825750-LRI2"
          }
        ],
        "performer": [
          {
            "identifier": {
              "system": "https://fhir.nhs.uk/Id/ods-organization-code",
              "value": "699X0"
            },
            "type": "Organization"
          }
        ],
        "status": "final",
        "subject": {
          "identifier": {
            "system": "https://fhir.nhs.uk/Id/nhs-number",
            "type": {
              "coding": [
                {
                  "code": "NH",
                  "system": "http://terminology.hl7.org/CodeSystem/v2-0203"
                }
              ]
            },
            "value": "9737383214"
          },
          "reference": "urn:uuid:4ced114c-1943-4914-b63e-fac68669c9c4"
        },
        "valueCodeableConcept": {
          "coding": [
            {
              "code": "711+1G>T",
              "display": "711+1G>T",
              "system": "http://varnomen.hgvs.org"
            }
          ]
        }
      }
    },
    {
      "fullUrl": "urn:uuid:6b449637-b8b8-4385-a138-cd79613a316c",
      "resource": {
        "resourceType": "Observation",
        "code": {
          "coding": [
            {
              "code": "36908-2",
              "display": "Gene mutations tested",
              "system": "http://loinc.org"
            }
          ]
        },
        "effectiveDateTime": "2016-08-09T16:50:00+00:00",
        "identifier": [
          {
            "assigner": {
              "identifier": {
                "system": "https://fhir.nhs.uk/Id/ods-organization-code",
                "value": "699X0"
              }
            },
            "system": "https://fhir.nwgenomics.nhs.uk/iGene/ReportIdentifier",
            "type": {
              "coding": [
                {
                  "code": "FILL",
                  "system": "http://terminology.hl7.org/CodeSystem/v2-0203"
                }
              ]
            },
            "value": "Gen825750-LRI2"
          }
        ],
        "performer": [
          {
            "identifier": {
              "system": "https://fhir.nhs.uk/Id/ods-organization-code",
              "value": "699X0"
            },
            "type": "Organization"
          }
        ],
        "status": "final",
        "subject": {
          "identifier": {
            "system": "https://fhir.nhs.uk/Id/nhs-number",
            "type": {
              "coding": [
                {
                  "code": "NH",
                  "system": "http://terminology.hl7.org/CodeSystem/v2-0203"
                }
              ]
            },
            "value": "9737383214"
          },
          "reference": "urn:uuid:4ced114c-1943-4914-b63e-fac68669c9c4"
        },
        "valueCodeableConcept": {
          "coding": [
            {
              "code": "Asn1303Lys(C>A)",
              "display": "Asn1303Lys(C>A)",
              "system": "http://varnomen.hgvs.org"
            }
          ]
        }
      }
    },
    {
      "fullUrl": "urn:uuid:9c252ea9-5d80-4444-bbc5-9f3ab31ed8c8",
      "resource": {
        "resourceType": "Observation",
        "code": {
          "coding": [
            {
              "code": "36908-2",
              "display": "Gene mutations tested",
              "system": "http://loinc.org"
            }
          ]
        },
        "effectiveDateTime": "2016-08-09T16:50:00+00:00",
        "identifier": [
          {
            "assigner": {
              "identifier": {
                "system": "https://fhir.nhs.uk/Id/ods-organization-code",
                "value": "699X0"
              }
            },
            "system": "https://fhir.nwgenomics.nhs.uk/iGene/ReportIdentifier",
            "type": {
              "coding": [
                {
                  "code": "FILL",
                  "system": "http://terminology.hl7.org/CodeSystem/v2-0203"
                }
              ]
            },
            "value": "Gen825750-LRI2"
          }
        ],
        "performer": [
          {
            "identifier": {
              "system": "https://fhir.nhs.uk/Id/ods-organization-code",
              "value": "699X0"
            },
            "type": "Organization"
          }
        ],
        "status": "final",
        "subject": {
          "identifier": {
            "system": "https://fhir.nhs.uk/Id/nhs-number",
            "type": {
              "coding": [
                {
                  "code": "NH",
                  "system": "http://terminology.hl7.org/CodeSystem/v2-0203"
                }
              ]
            },
            "value": "9737383214"
          },
          "reference": "urn:uuid:4ced114c-1943-4914-b63e-fac68669c9c4"
        },
        "valueCodeableConcept": {
          "coding": [
            {
              "code": "Arg334Trp",
              "display": "Arg334Trp",
              "system": "http://varnomen.hgvs.org"
            }
          ]
        }
      }
    },
    {
      "fullUrl": "urn:uuid:f323eae6-1426-4107-a960-520df3a892cc",
      "resource": {
        "resourceType": "Observation",
        "code": {
          "coding": [
            {
              "code": "36908-2",
              "display": "Gene mutations tested",
              "system": "http://loinc.org"
            }
          ]
        },
        "effectiveDateTime": "2016-08-09T16:50:00+00:00",
        "identifier": [
          {
            "assigner": {
              "identifier": {
                "system": "https://fhir.nhs.uk/Id/ods-organization-code",
                "value": "699X0"
              }
            },
            "system": "https://fhir.nwgenomics.nhs.uk/iGene/ReportIdentifier",
            "type": {
              "coding": [
                {
                  "code": "FILL",
                  "system": "http://terminology.hl7.org/CodeSystem/v2-0203"
                }
              ]
            },
            "value": "Gen825750-LRI2"
          }
        ],
        "performer": [
          {
            "identifier": {
              "system": "https://fhir.nhs.uk/Id/ods-organization-code",
              "value": "699X0"
            },
            "type": "Organization"
          }
        ],
        "status": "final",
        "subject": {
          "identifier": {
            "system": "https://fhir.nhs.uk/Id/nhs-number",
            "type": {
              "coding": [
                {
                  "code": "NH",
                  "system": "http://terminology.hl7.org/CodeSystem/v2-0203"
                }
              ]
            },
            "value": "9737383214"
          },
          "reference": "urn:uuid:4ced114c-1943-4914-b63e-fac68669c9c4"
        },
        "valueCodeableConcept": {
          "coding": [
            {
              "code": "Arg347Pro",
              "display": "Arg347Pro",
              "system": "http://varnomen.hgvs.org"
            }
          ]
        }
      }
    },
    {
      "fullUrl": "urn:uuid:d116b1d4-e37d-443b-9fd2-51f3a90c53d6",
      "resource": {
        "resourceType": "Observation",
        "code": {
          "coding": [
            {
              "code": "36908-2",
              "display": "Gene mutations tested",
              "system": "http://loinc.org"
            }
          ]
        },
        "effectiveDateTime": "2016-08-09T16:50:00+00:00",
        "identifier": [
          {
            "assigner": {
              "identifier": {
                "system": "https://fhir.nhs.uk/Id/ods-organization-code",
                "value": "699X0"
              }
            },
            "system": "https://fhir.nwgenomics.nhs.uk/iGene/ReportIdentifier",
            "type": {
              "coding": [
                {
                  "code": "FILL",
                  "system": "http://terminology.hl7.org/CodeSystem/v2-0203"
                }
              ]
            },
            "value": "Gen825750-LRI2"
          }
        ],
        "performer": [
          {
            "identifier": {
              "system": "https://fhir.nhs.uk/Id/ods-organization-code",
              "value": "699X0"
            },
            "type": "Organization"
          }
        ],
        "status": "final",
        "subject": {
          "identifier": {
            "system": "https://fhir.nhs.uk/Id/nhs-number",
            "type": {
              "coding": [
                {
                  "code": "NH",
                  "system": "http://terminology.hl7.org/CodeSystem/v2-0203"
                }
              ]
            },
            "value": "9737383214"
          },
          "reference": "urn:uuid:4ced114c-1943-4914-b63e-fac68669c9c4"
        },
        "valueCodeableConcept": {
          "coding": [
            {

            }
          ],
          "text": "the deletion of exons 2-3"
        }
      }
    },
    {
      "fullUrl": "urn:uuid:769bd71c-4abc-49e9-aed4-cabd42c25320",
      "resource": {
        "resourceType": "Observation",
        "code": {
          "coding": [
            {
              "code": "51968-6",
              "display": "Discrete variation analysis overall interpretation",
              "system": "http://loinc.org"
            }
          ]
        },
        "effectiveDateTime": "2016-08-09T16:50:00+00:00",
        "identifier": [
          {
            "assigner": {
              "identifier": {
                "system": "https://fhir.nhs.uk/Id/ods-organization-code",
                "value": "699X0"
              }
            },
            "system": "https://fhir.nwgenomics.nhs.uk/iGene/ReportIdentifier",
            "type": {
              "coding": [
                {
                  "code": "FILL",
                  "system": "http://terminology.hl7.org/CodeSystem/v2-0203"
                }
              ]
            },
            "value": "Gen825750-LRI2"
          }
        ],
        "performer": [
          {
            "identifier": {
              "system": "https://fhir.nhs.uk/Id/ods-organization-code",
              "value": "699X0"
            },
            "type": "Organization"
          }
        ],
        "status": "final",
        "subject": {
          "identifier": {
            "system": "https://fhir.nhs.uk/Id/nhs-number",
            "type": {
              "coding": [
                {
                  "code": "NH",
                  "system": "http://terminology.hl7.org/CodeSystem/v2-0203"
                }
              ]
            },
            "value": "9737383214"
          },
          "reference": "urn:uuid:4ced114c-1943-4914-b63e-fac68669c9c4"
        },
        "valueCodeableConcept": {
          "coding": [
            {
              "code": "LA6576-8",
              "display": "Positive",
              "system": "http://loinc.org"
            }
          ]
        }
      }
    },
    {
      "fullUrl": "urn:uuid:9da4830f-a30e-4fdc-88e4-9a9e27cd0111",
      "resource": {
        "resourceType": "Binary",
        "contentType": "application/pdf",
        "data": ""
      }
    },
    {
      "fullUrl": "urn:uuid:4f94016f-0b97-47a0-870f-a24eaab28d13",
      "resource": {
        "resourceType": "DocumentReference",
        "content": [
          {
            "attachment": {
              "contentType": "application/pdf",
              "url": "urn:uuid:9da4830f-a30e-4fdc-88e4-9a9e27cd0111"
            }
          }
        ],
        "context": {
          "period": {
            "end": "2016-08-09T16:50:00+00:00",
            "start": "2016-08-09T16:50:00+00:00"
          },
          "related": [
            {
              "identifier": {
                "assigner": {
                  "identifier": {
                    "system": "https://fhir.nhs.uk/Id/ods-organization-code",
                    "value": "RBS"
                  }
                },
                "type": {
                  "coding": [
                    {
                      "code": "PLAC",
                      "system": "http://terminology.hl7.org/CodeSystem/v2-0203"
                    }
                  ]
                },
                "value": "LRI-1000152867"
              },
              "reference": "urn:uuid:7f067421-d1be-4b9e-a8ff-ec23c70c5065",
              "type": "ServiceRequest"
            },
            {
              "identifier": {
                "assigner": {
                  "identifier": {
                    "system": "https://fhir.nhs.uk/Id/ods-organization-code",
                    "value": "699X0"
                  }
                },
                "system": "https://fhir.nwgenomics.nhs.uk/iGene/ReportIdentifier",
                "type": {
                  "coding": [
                    {
                      "code": "FILL",
                      "system": "http://terminology.hl7.org/CodeSystem/v2-0203"
                    }
                  ]
                },
                "value": "Gen825750-LRI2"
              },
              "reference": "urn:uuid:96f2c8ff-571a-4bcb-b0b6-d47d5f560b5f",
              "type": "DiagnosticReport"
            }
          ]
        },
        "custodian": {
          "identifier": {
            "system": "https://fhir.nhs.uk/Id/ods-organization-code",
            "value": "699X0"
          },
          "type": "Organization"
        },
        "date": "2016-08-09T16:50:00+00:00",
        "identifier": [
          {
            "assigner": {
              "identifier": {
                "system": "https://fhir.nhs.uk/Id/ods-organization-code",
                "value": "699X0"
              }
            },
            "system": "https://fhir.nwgenomics.nhs.uk/iGene/ReportIdentifier",
            "type": {
              "coding": [
                {
                  "code": "FILL",
                  "system": "http://terminology.hl7.org/CodeSystem/v2-0203"
                }
              ]
            },
            "value": "Gen825750-LRI2"
          }
        ],
        "status": "current",
        "subject": {
          "identifier": {
            "system": "https://fhir.nhs.uk/Id/nhs-number",
            "type": {
              "coding": [
                {
                  "code": "NH",
                  "system": "http://terminology.hl7.org/CodeSystem/v2-0203"
                }
              ]
            },
            "value": "9737383214"
          },
          "reference": "urn:uuid:4ced114c-1943-4914-b63e-fac68669c9c4"
        },
        "type": {
          "coding": [
            {
              "code": "1054161000000101",
              "display": "Genetic report",
              "system": "http://snomed.info/sct"
            }
          ]
        }
      }
    },
    {
      "fullUrl": "urn:uuid:33dbc34a-cdf9-4920-a8c2-94769bc24e32",
      "resource": {
        "resourceType": "Observation",
        "code": {
          "coding": [
            {
              "code": "62374-4",
              "display": "Human reference sequence assembly",
              "system": "http://loinc.org"
            }
          ]
        },
        "effectiveDateTime": "2016-08-09T16:50:00+00:00",
        "identifier": [
          {
            "assigner": {
              "identifier": {
                "system": "https://fhir.nhs.uk/Id/ods-organization-code",
                "value": "699X0"
              }
            },
            "system": "https://fhir.nwgenomics.nhs.uk/iGene/ReportIdentifier",
            "type": {
              "coding": [
                {
                  "code": "FILL",
                  "system": "http://terminology.hl7.org/CodeSystem/v2-0203"
                }
              ]
            },
            "value": "Gen825750-LRI2"
          }
        ],
        "performer": [
          {
            "identifier": {
              "system": "https://fhir.nhs.uk/Id/ods-organization-code",
              "value": "699X0"
            },
            "type": "Organization"
          }
        ],
        "status": "final",
        "subject": {
          "identifier": {
            "system": "https://fhir.nhs.uk/Id/nhs-number",
            "type": {
              "coding": [
                {
                  "code": "NH",
                  "system": "http://terminology.hl7.org/CodeSystem/v2-0203"
                }
              ]
            },
            "value": "9737383214"
          },
          "reference": "urn:uuid:4ced114c-1943-4914-b63e-fac68669c9c4"
        },
        "valueCodeableConcept": {
          "coding": [
            {
              "code": "LA14029-5",
              "display": "GRCh37",
              "system": "http://loinc.org"
            }
          ]
        }
      }
    },
    {
      "fullUrl": "urn:uuid:0c8e246a-e677-4c2e-92d1-cfa0ba3645c1",
      "resource": {
        "resourceType": "Observation",
        "code": {
          "coding": [
            {
              "code": "82115-7",
              "display": "dbSNP version",
              "system": "http://loinc.org"
            }
          ]
        },
        "effectiveDateTime": "2016-08-09T16:50:00+00:00",
        "identifier": [
          {
            "assigner": {
              "identifier": {
                "system": "https://fhir.nhs.uk/Id/ods-organization-code",
                "value": "699X0"
              }
            },
            "system": "https://fhir.nwgenomics.nhs.uk/iGene/ReportIdentifier",
            "type": {
              "coding": [
                {
                  "code": "FILL",
                  "system": "http://terminology.hl7.org/CodeSystem/v2-0203"
                }
              ]
            },
            "value": "Gen825750-LRI2"
          }
        ],
        "performer": [
          {
            "identifier": {
              "system": "https://fhir.nhs.uk/Id/ods-organization-code",
              "value": "699X0"
            },
            "type": "Organization"
          }
        ],
        "status": "final",
        "subject": {
          "identifier": {
            "system": "https://fhir.nhs.uk/Id/nhs-number",
            "type": {
              "coding": [
                {
                  "code": "NH",
                  "system": "http://terminology.hl7.org/CodeSystem/v2-0203"
                }
              ]
            },
            "value": "9737383214"
          },
          "reference": "urn:uuid:4ced114c-1943-4914-b63e-fac68669c9c4"
        },
        "valueQuantity": {
          "system": "http://unitsofmeasure.org",
          "unit": "Attributes of Discrete Genetic Variants: Report Section 2",
          "value": 147
        }
      }
    },
    {
      "fullUrl": "urn:uuid:87d6c37d-0a80-4749-a561-2684ec5e142b",
      "resource": {
        "resourceType": "Observation",
        "category": [
          {
            "coding": [
              {
                "code": "laboratory",
                "system": "http://terminology.hl7.org/CodeSystem/observation-category"
              }
            ]
          },
          {
            "coding": [
              {
                "code": "GE",
                "system": "http://terminology.hl7.org/CodeSystem/v2-0074"
              }
            ]
          },
          {
            "coding": [
              {
                "code": "LA26801-3",
                "display": "Simple Variant",
                "system": "http://loinc.org"
              }
            ]
          }
        ],
        "code": {
          "coding": [
            {
              "code": "69548-6",
              "display": "Genetic variant assessment",
              "system": "http://loinc.org"
            }
          ]
        },
        "component": [
          {
            "code": {
              "coding": [
                {
                  "code": "81252-9",
                  "display": "Discrete genetic variant",
                  "system": "http://loinc.org"
                }
              ]
            },
            "valueCodeableConcept": {
              "coding": [
                {
                  "code": "7105",
                  "display": "NM_000492.3(CFTR):c.1521_1523delCTT (p.Phe508delPhe)",
                  "system": "http://www.ncbi.nlm.nih.gov/clinvar"
                }
              ]
            }
          },
          {
            "code": {
              "coding": [
                {
                  "code": "48018-6",
                  "display": "Gene studied",
                  "system": "http://loinc.org"
                }
              ]
            },
            "valueCodeableConcept": {
              "coding": [
                {
                  "code": "1884",
                  "display": "CFTR",
                  "system": "http://www.genenames.org"
                }
              ]
            }
          },
          {
            "code": {
              "coding": [
                {
                  "code": "51958-7",
                  "display": "Transcript RefSeq ID",
                  "system": "http://loinc.org"
                }
              ]
            },
            "valueCodeableConcept": {
              "coding": [
                {
                  "code": "NM_000492.3",
                  "display": "NM_000492.3",
                  "system": "http://www.ncbi.nlm.nih.gov/refseq"
                }
              ]
            }
          },
          {
            "code": {
              "coding": [
                {
                  "code": "41103-3",
                  "display": "Transcript DNA Change (cHGVS)",
                  "system": "http://loinc.org"
                }
              ]
            },
            "valueCodeableConcept": {
              "coding": [
                {
                  "code": "c.1521_1523delCTT",
                  "display": "c.1521_1523delCTT",
                  "system": "http://varnomen.hgvs.org"
                }
              ]
            }
          },
          {
            "code": {
              "coding": [
                {
                  "code": "48005-3",
                  "display": "Amino acid change p.HGVS",
                  "system": "http://loinc.org"
                }
              ]
            },
            "valueCodeableConcept": {
              "coding": [
                {
                  "code": "p.Phe508delPhe",
                  "display": "p.Phe508delPhe",
                  "system": "http://varnomen.hgvs.org"
                }
              ]
            }
          },
          {
            "code": {
              "coding": [
                {
                  "code": "48019-4",
                  "display": "DNA change type",
                  "system": "http://loinc.org"
                }
              ]
            },
            "valueCodeableConcept": {
              "coding": [
                {
                  "code": "LA6692-3l",
                  "display": "deletion",
                  "system": "http://loinc.org"
                }
              ]
            }
          },
          {
            "code": {
              "coding": [
                {
                  "code": "48013-7",
                  "display": "Genomic reference sequence ID",
                  "system": "http://loinc.org"
                }
              ]
            },
            "valueCodeableConcept": {
              "coding": [
                {
                  "code": "NG_016465.4:g.98809_98811delCTT",
                  "display": "NG_016465.4:g.98809_98811delCTT",
                  "system": "http://www.ncbi.nlm.nih.gov/refseq"
                }
              ]
            }
          },
          {
            "code": {
              "coding": [
                {
                  "code": "81290-9",
                  "display": "Genomic DNA change(gHGVS)",
                  "system": "http://loinc.org"
                }
              ]
            },
            "valueCodeableConcept": {
              "coding": [
                {
                  "code": "NC_000007.13",
                  "display": "NC_000007.13",
                  "system": "http://varnomen.hgvs.org"
                }
              ]
            }
          },
          {
            "code": {
              "coding": [
                {
                  "code": "69547-8",
                  "display": "Genomic ref allele",
                  "system": "http://loinc.org"
                }
              ]
            },
            "valueString": "CTT"
          },
          {
            "code": {
              "coding": [
                {
                  "code": "81254-5",
                  "display": "Genomic allele start-end",
                  "system": "http://loinc.org"
                }
              ]
            },
            "valueRange": {
              "high": {
                "system": "http://unitsofmeasure.org",
                "value": 117199648
              },
              "low": {
                "system": "http://unitsofmeasure.org",
                "value": 117199646
              }
            }
          },
          {
            "code": {
              "coding": [
                {
                  "code": "69551-0",
                  "display": "Genomic alt allele",
                  "system": "http://loinc.org"
                }
              ]
            },
            "valueString": "-"
          },
          {
            "code": {
              "coding": [
                {
                  "code": "81255-2",
                  "display": "dbSNP ID",
                  "system": "http://loinc.org"
                }
              ]
            },
            "valueCodeableConcept": {
              "coding": [
                {
                  "code": "rs113993960",
                  "display": "rs113993960",
                  "system": "http://www.ncbi.nlm.nih.gov/projects/SNP"
                }
              ]
            }
          },
          {
            "code": {
              "coding": [
                {
                  "code": "48001-2",
                  "display": "Cytogenetic (chromosome) location",
                  "system": "http://loinc.org"
                }
              ]
            },
            "valueCodeableConcept": {
              "coding": [
                {
                  "code": "7q31.2",
                  "display": "7q31.2",
                  "system": "Chrom-Loc"
                }
              ]
            }
          },
          {
            "code": {
              "coding": [
                {
                  "code": "48002-0",
                  "display": "Genomic source class",
                  "system": "http://loinc.org"
                }
              ]
            },
            "valueCodeableConcept": {
              "coding": [
                {
                  "code": "LA6683-2",
                  "display": "Germline",
                  "system": "http://loinc.org"
                }
              ]
            }
          },
          {
            "code": {
              "coding": [
                {
                  "code": "53037-8",
                  "display": "Genetic variation Clinical significance",
                  "system": "http://loinc.org"
                }
              ]
            },
            "valueCodeableConcept": {
              "coding": [
                {
                  "code": "LA6668-3",
                  "display": "Pathogenic",
                  "system": "http://loinc.org"
                }
              ]
            }
          },
          {
            "code": {
              "coding": [
                {
                  "code": "69548-6",
                  "display": "Genomic variant assessment",
                  "system": "http://loinc.org"
                }
              ]
            },
            "valueCodeableConcept": {
              "coding": [
                {
                  "code": "LA9633-4",
                  "display": "Present",
                  "system": "http://loinc.org"
                }
              ]
            }
          },
          {
            "code": {
              "coding": [
                {
                  "code": "53034-5",
                  "display": "Allelic state",
                  "system": "http://loinc.org"
                }
              ]
            },
            "valueCodeableConcept": {
              "coding": [
                {
                  "code": "LA6706-1",
                  "display": "Heterozygous",
                  "system": "http://loinc.org"
                }
              ]
            }
          }
        ],
        "effectiveDateTime": "2016-08-09T16:50:00+00:00",
        "identifier": [
          {
            "assigner": {
              "identifier": {
                "system": "https://fhir.nhs.uk/Id/ods-organization-code",
                "value": "699X0"
              }
            },
            "system": "https://fhir.nwgenomics.nhs.uk/iGene/ReportIdentifier",
            "type": {
              "coding": [
                {
                  "code": "FILL",
                  "system": "http://terminology.hl7.org/CodeSystem/v2-0203"
                }
              ]
            },
            "value": "Gen825750-LRI2"
          }
        ],
        "meta": {
          "profile": [
            "https://fhir.nwgenomics.nhs.uk/StructureDefinition/Variant"
          ]
        },
        "method": {
          "coding": [
            {
              "code": "LA26400-4",
              "display": "SNP array",
              "system": "http://loinc.org"
            }
          ]
        },
        "performer": [
          {
            "identifier": {
              "system": "https://fhir.nhs.uk/Id/ods-organization-code",
              "value": "699X0"
            },
            "type": "Organization"
          }
        ],
        "status": "final",
        "subject": {
          "identifier": {
            "system": "https://fhir.nhs.uk/Id/nhs-number",
            "type": {
              "coding": [
                {
                  "code": "NH",
                  "system": "http://terminology.hl7.org/CodeSystem/v2-0203"
                }
              ]
            },
            "value": "9737383214"
          },
          "reference": "urn:uuid:4ced114c-1943-4914-b63e-fac68669c9c4"
        },
        "valueCodeableConcept": {
          "coding": [
            {
              "code": "1884",
              "display": "CFTR",
              "system": "http://www.genenames.org"
            }
          ]
        }
      }
    },
    {
      "fullUrl": "urn:uuid:b6c62189-b240-4d76-92ef-9d20d241094c",
      "resource": {
        "resourceType": "Observation",
        "category": [
          {
            "coding": [
              {
                "code": "laboratory",
                "system": "http://terminology.hl7.org/CodeSystem/observation-category"
              }
            ]
          },
          {
            "coding": [
              {
                "code": "GE",
                "system": "http://terminology.hl7.org/CodeSystem/v2-0074"
              }
            ]
          }
        ],
        "code": {
          "coding": [
            {
              "code": "412731001",
              "display": "Genetic finding detected",
              "system": "http://snomed.info/sct"
            },
            {
              "code": "diagnostic-implication",
              "system": "http://hl7.org/fhir/uv/genomics-reporting/CodeSystem/tbd-codes-cs"
            },
            {
              "code": "R185",
              "display": "Cystic fibrosis",
              "system": "https://fhir.nwgenomics.nhs.uk/CodeSystem/GenomicClinicalIndication"
            }
          ]
        },
        "component": [
          {
            "code": {
              "coding": [
                {
                  "code": "81259-4",
                  "display": "Probable associated phenotype",
                  "system": "http://loinc.org"
                }
              ]
            },
            "valueCodeableConcept": {
              "coding": [
                {
                  "code": "R185",
                  "display": "Cystic fibrosis",
                  "system": "https://fhir.nwgenomics.nhs.uk/CodeSystem/GenomicClinicalIndication"
                }
              ]
            }
          }
        ],
        "derivedFrom": [
          {
            "reference": "urn:uuid:87d6c37d-0a80-4749-a561-2684ec5e142b",
            "type": "Observation"
          }
        ],
        "effectiveDateTime": "2016-08-09T16:50:00+00:00",
        "identifier": [
          {
            "assigner": {
              "identifier": {
                "system": "https://fhir.nhs.uk/Id/ods-organization-code",
                "value": "699X0"
              }
            },
            "system": "https://fhir.nwgenomics.nhs.uk/iGene/ReportIdentifier",
            "type": {
              "coding": [
                {
                  "code": "FILL",
                  "system": "http://terminology.hl7.org/CodeSystem/v2-0203"
                }
              ]
            },
            "value": "Gen825750-LRI2"
          }
        ],
        "meta": {
          "profile": [
            "https://fhir.nwgenomics.nhs.uk/StructureDefinition/DiagnosticImplication"
          ]
        },
        "performer": [
          {
            "identifier": {
              "system": "https://fhir.nhs.uk/Id/ods-organization-code",
              "value": "699X0"
            },
            "type": "Organization"
          }
        ],
        "status": "final",
        "subject": {
          "identifier": {
            "system": "https://fhir.nhs.uk/Id/nhs-number",
            "type": {
              "coding": [
                {
                  "code": "NH",
                  "system": "http://terminology.hl7.org/CodeSystem/v2-0203"
                }
              ]
            },
            "value": "9737383214"
          },
          "reference": "urn:uuid:4ced114c-1943-4914-b63e-fac68669c9c4"
        }
      }
    },
    {
      "fullUrl": "urn:uuid:7f067421-d1be-4b9e-a8ff-ec23c70c5065",
      "resource": {
        "resourceType": "ServiceRequest",
        "authoredOn": "2016-08-03",
        "category": [
          {
            "coding": [
              {
                "code": "116148004",
                "system": "http://snomed.info/sct"
              }
            ]
          }
        ],
        "code": {
          "coding": [
            {
              "code": "R185.1",
              "display": "Cystic fibrosis carrier testing",
              "system": "https://fhir.nhs.uk/CodeSystem/England-GenomicTestDirectory"
            }
          ]
        },
        "identifier": [
          {
            "assigner": {
              "identifier": {
                "system": "https://fhir.nhs.uk/Id/ods-organization-code",
                "value": "RBS"
              }
            },
            "type": {
              "coding": [
                {
                  "code": "PLAC",
                  "system": "http://terminology.hl7.org/CodeSystem/v2-0203"
                }
              ]
            },
            "value": "LRI-1000152867"
          }
        ],
        "intent": "order",
        "reasonCode": [
          {
            "coding": [
              {
                "code": "R185",
                "display": "Cystic fibrosis",
                "system": "https://fhir.nwgenomics.nhs.uk/CodeSystem/GenomicClinicalIndication"
              }
            ]
          }
        ],
        "requester": {
          "display": "Alder Hey",
          "identifier": {
            "system": "https://fhir.nhs.uk/Id/ods-organization-code",
            "value": "RBS"
          },
          "type": "Organization"
        },
        "status": "active",
        "subject": {
          "identifier": {
            "system": "https://fhir.nhs.uk/Id/nhs-number",
            "type": {
              "coding": [
                {
                  "code": "NH",
                  "system": "http://terminology.hl7.org/CodeSystem/v2-0203"
                }
              ]
            },
            "value": "9737383214"
          },
          "reference": "urn:uuid:4ced114c-1943-4914-b63e-fac68669c9c4"
        }
      }
    },
    {
      "fullUrl": "urn:uuid:96f2c8ff-571a-4bcb-b0b6-d47d5f560b5f",
      "resource": {
        "resourceType": "DiagnosticReport",
        "basedOn": [
          {
            "identifier": {
              "assigner": {
                "identifier": {
                  "system": "https://fhir.nhs.uk/Id/ods-organization-code",
                  "value": "RBS"
                }
              },
              "type": {
                "coding": [
                  {
                    "code": "PLAC",
                    "system": "http://terminology.hl7.org/CodeSystem/v2-0203"
                  }
                ]
              },
              "value": "LRI-1000152867"
            },
            "reference": "urn:uuid:7f067421-d1be-4b9e-a8ff-ec23c70c5065",
            "type": "ServiceRequest"
          }
        ],
        "category": [
          {
            "coding": [
              {
                "code": "GE",
                "system": "http://terminology.hl7.org/CodeSystem/v2-0074"
              }
            ]
          }
        ],
        "code": {
          "coding": [
            {
              "code": "R185.1",
              "display": "Cystic fibrosis carrier testing",
              "system": "https://fhir.nhs.uk/CodeSystem/England-GenomicTestDirectory"
            }
          ]
        },
        "effectiveDateTime": "2016-08-09T16:50:00+00:00",
        "identifier": [
          {
            "assigner": {
              "identifier": {
                "system": "https://fhir.nhs.uk/Id/ods-organization-code",
                "value": "699X0"
              }
            },
            "system": "https://fhir.nwgenomics.nhs.uk/iGene/ReportIdentifier",
            "type": {
              "coding": [
                {
                  "code": "FILL",
                  "system": "http://terminology.hl7.org/CodeSystem/v2-0203"
                }
              ]
            },
            "value": "Gen825750-LRI2"
          }
        ],
        "performer": [
          {
            "display": "NHS North West Genomics",
            "identifier": {
              "system": "https://fhir.nhs.uk/Id/ods-organization-code",
              "value": "699X0"
            },
            "type": "Organization"
          }
        ],
        "presentedForm": [
          {
            "contentType": "application/pdf",
            "url": "urn:uuid:9da4830f-a30e-4fdc-88e4-9a9e27cd0111"
          }
        ],
        "result": [
          {
            "display": "Reason for study",
            "reference": "urn:uuid:894eec6a-6977-4144-b170-761b2a17b9ad",
            "type": "Observation"
          },
          {
            "display": "Genetic disease(s) assessed",
            "reference": "urn:uuid:9fa62b98-9dd5-4b12-ac8e-8c9a82d718b3",
            "type": "Observation"
          },
          {
            "display": "Transcript reference sequence [Identifier]",
            "reference": "urn:uuid:30f1747a-df64-4b09-95b4-3a128b6359cf",
            "type": "Observation"
          },
          {
            "display": "Gene studied",
            "reference": "urn:uuid:10322acb-2b67-44ef-bfcb-a614669cd32c",
            "type": "Observation"
          },
          {
            "display": "Gene mutations tested",
            "reference": "urn:uuid:ee16f191-eb42-40f0-8b25-2fb0574d6302",
            "type": "Observation"
          },
          {
            "display": "Gene mutations tested",
            "reference": "urn:uuid:517c8626-a95e-437f-a4f5-3b2997999074",
            "type": "Observation"
          },
          {
            "display": "Gene mutations tested",
            "reference": "urn:uuid:985b826f-9403-4b2a-a7a3-015e9b8d4db9",
            "type": "Observation"
          },
          {
            "display": "Gene mutations tested",
            "reference": "urn:uuid:a507966e-ac8e-4b0b-9439-80e5f00c62b5",
            "type": "Observation"
          },
          {
            "display": "Gene mutations tested",
            "reference": "urn:uuid:1a8b5fa2-f298-4f1a-ac3c-9b7f745e1a5e",
            "type": "Observation"
          },
          {
            "display": "Gene mutations tested",
            "reference": "urn:uuid:72871746-0159-4051-ba07-69cc4e817b10",
            "type": "Observation"
          },
          {
            "display": "Gene mutations tested",
            "reference": "urn:uuid:5b004c34-941a-40a0-8e9d-a363a9029f0e",
            "type": "Observation"
          },
          {
            "display": "Gene mutations tested",
            "reference": "urn:uuid:6b449637-b8b8-4385-a138-cd79613a316c",
            "type": "Observation"
          },
          {
            "display": "Gene mutations tested",
            "reference": "urn:uuid:9c252ea9-5d80-4444-bbc5-9f3ab31ed8c8",
            "type": "Observation"
          },
          {
            "display": "Gene mutations tested",
            "reference": "urn:uuid:f323eae6-1426-4107-a960-520df3a892cc",
            "type": "Observation"
          },
          {
            "display": "Gene mutations tested",
            "reference": "urn:uuid:d116b1d4-e37d-443b-9fd2-51f3a90c53d6",
            "type": "Observation"
          },
          {
            "display": "Discrete variation analysis overall interpretation",
            "reference": "urn:uuid:769bd71c-4abc-49e9-aed4-cabd42c25320",
            "type": "Observation"
          },
          {
            "display": "Human reference sequence assembly",
            "reference": "urn:uuid:33dbc34a-cdf9-4920-a8c2-94769bc24e32",
            "type": "Observation"
          },
          {
            "display": "dbSNP version",
            "reference": "urn:uuid:0c8e246a-e677-4c2e-92d1-cfa0ba3645c1",
            "type": "Observation"
          },
          {
            "display": "Genetic variant assessment",
            "reference": "urn:uuid:87d6c37d-0a80-4749-a561-2684ec5e142b",
            "type": "Observation"
          },
          {
            "display": "Genetic finding detected",
            "reference": "urn:uuid:b6c62189-b240-4d76-92ef-9d20d241094c",
            "type": "Observation"
          }
        ],
        "status": "unknown",
        "subject": {
          "identifier": {
            "system": "https://fhir.nhs.uk/Id/nhs-number",
            "type": {
              "coding": [
                {
                  "code": "NH",
                  "system": "http://terminology.hl7.org/CodeSystem/v2-0203"
                }
              ]
            },
            "value": "9737383214"
          },
          "reference": "urn:uuid:4ced114c-1943-4914-b63e-fac68669c9c4"
        }
      }
    }
  ],
  "identifier": {
    "value": "ORIE-251014-9"
  },
  "timestamp": "2025-10-14T15:59:42+00:00",
  "type": "message"
}