{
  "resourceType": "Bundle",
  "entry": [
    {
      "fullUrl": "urn:uuid:081efebb-989b-41f4-9e6a-3d55dd3f9fe5",
      "resource": {
        "resourceType": "MessageHeader",
        "destination": [
          {
            "endpoint": "https//fhir.mft.nhs.uk/Endpoint/EPIC",
            "receiver": {
              "identifier": {
                "system": "https://fhir.nhs.uk/Id/ods-organization-code",
                "value": "699X0"
              }
            }
          }
        ],
        "eventCoding": {
          "code": "R01",
          "system": "http://terminology.hl7.org/CodeSystem/v2-0003"
        },
        "focus": [
          {
            "reference": "urn:uuid:554143ad-081e-4cce-b616-1cc593c564dd"
          }
        ],
        "sender": {
          "identifier": {
            "system": "https://fhir.nhs.uk/Id/ods-organization-code",
            "value": "699X0"
          }
        },
        "source": {
          "endpoint": "https://fhir.nwgenomics.nhs.uk/Endpoint/IGENE",
          "software": "NW GLH"
        }
      }
    },
    {
      "fullUrl": "urn:uuid:d1982d12-f0b5-4ddb-b758-a811f66b89d3",
      "resource": {
        "resourceType": "Patient",
        "address": [
          {
            "postalCode": "M13 9PL"
          }
        ],
        "birthDate": "1972-09-21",
        "gender": "female",
        "identifier": [
          {
            "system": "https://fhir.nhs.uk/Id/nhs-number",
            "type": {
              "coding": [
                {
                  "code": "NH",
                  "system": "http://terminology.hl7.org/CodeSystem/v2-0203"
                }
              ]
            },
            "value": "9737383192"
          },
          {
            "assigner": {
              "identifier": {
                "system": "https://fhir.nhs.uk/Id/ods-organization-code",
                "value": "R0A"
              }
            },
            "system": "urn:oid:1.2.840.114350.1.13.611.3.7.5.737384.14",
            "type": {
              "coding": [
                {
                  "code": "MR",
                  "system": "http://terminology.hl7.org/CodeSystem/v2-0203"
                }
              ]
            },
            "value": "1234567"
          }
        ],
        "name": [
          {
            "family": "MANCHESTER",
            "given": [
              "SANSA"
            ]
          }
        ]
      }
    },
    {
      "fullUrl": "urn:uuid:9e1c599e-7dba-4e60-ae14-df5aa29d2662",
      "resource": {
        "resourceType": "Observation",
        "code": {
          "coding": [
            {
              "code": "53577-3",
              "display": "Reason for study",
              "system": "http://loinc.org"
            }
          ]
        },
        "identifier": [
          {
            "assigner": {
              "identifier": {
                "system": "https://fhir.nhs.uk/Id/ods-organization-code",
                "value": "699X0"
              }
            },
            "system": "https://fhir.nwgenomics.nhs.uk/iGene/ReportIdentifier",
            "type": {
              "coding": [
                {
                  "code": "FILL",
                  "system": "http://terminology.hl7.org/CodeSystem/v2-0203"
                }
              ]
            },
            "value": "Gen825750"
          }
        ],
        "performer": [
          {
            "identifier": {
              "system": "https://fhir.nhs.uk/Id/ods-organization-code",
              "value": "699X0"
            },
            "type": "Organization"
          }
        ],
        "status": "final",
        "subject": {
          "identifier": {
            "system": "https://fhir.nhs.uk/Id/nhs-number",
            "type": {
              "coding": [
                {
                  "code": "NH",
                  "system": "http://terminology.hl7.org/CodeSystem/v2-0203"
                }
              ]
            },
            "value": "9737383192"
          },
          "reference": "urn:uuid:d1982d12-f0b5-4ddb-b758-a811f66b89d3"
        },
        "valueString": "Patient may be carrier for classic galactosemia."
      }
    },
    {
      "fullUrl": "urn:uuid:0c68523e-4da8-4b73-a49d-31c161572c3b",
      "resource": {
        "resourceType": "Observation",
        "code": {
          "coding": [
            {
              "code": "51967-8",
              "display": "Genetic disease(s) assessed",
              "system": "http://loinc.org"
            }
          ]
        },
        "identifier": [
          {
            "assigner": {
              "identifier": {
                "system": "https://fhir.nhs.uk/Id/ods-organization-code",
                "value": "699X0"
              }
            },
            "system": "https://fhir.nwgenomics.nhs.uk/iGene/ReportIdentifier",
            "type": {
              "coding": [
                {
                  "code": "FILL",
                  "system": "http://terminology.hl7.org/CodeSystem/v2-0203"
                }
              ]
            },
            "value": "Gen825750"
          }
        ],
        "performer": [
          {
            "identifier": {
              "system": "https://fhir.nhs.uk/Id/ods-organization-code",
              "value": "699X0"
            },
            "type": "Organization"
          }
        ],
        "status": "final",
        "subject": {
          "identifier": {
            "system": "https://fhir.nhs.uk/Id/nhs-number",
            "type": {
              "coding": [
                {
                  "code": "NH",
                  "system": "http://terminology.hl7.org/CodeSystem/v2-0203"
                }
              ]
            },
            "value": "9737383192"
          },
          "reference": "urn:uuid:d1982d12-f0b5-4ddb-b758-a811f66b89d3"
        },
        "valueCodeableConcept": {
          "coding": [
            {
              "code": "C0016952",
              "display": "Galactosemia",
              "system": "MedGen-Dis"
            }
          ]
        }
      }
    },
    {
      "fullUrl": "urn:uuid:4629fc77-1938-4930-9720-2fd9cd039e7c",
      "resource": {
        "resourceType": "Observation",
        "code": {
          "coding": [
            {
              "code": "51958-7",
              "display": "Transcript reference sequence [Identifier]",
              "system": "http://loinc.org"
            }
          ]
        },
        "identifier": [
          {
            "assigner": {
              "identifier": {
                "system": "https://fhir.nhs.uk/Id/ods-organization-code",
                "value": "699X0"
              }
            },
            "system": "https://fhir.nwgenomics.nhs.uk/iGene/ReportIdentifier",
            "type": {
              "coding": [
                {
                  "code": "FILL",
                  "system": "http://terminology.hl7.org/CodeSystem/v2-0203"
                }
              ]
            },
            "value": "Gen825750"
          }
        ],
        "performer": [
          {
            "identifier": {
              "system": "https://fhir.nhs.uk/Id/ods-organization-code",
              "value": "699X0"
            },
            "type": "Organization"
          }
        ],
        "status": "final",
        "subject": {
          "identifier": {
            "system": "https://fhir.nhs.uk/Id/nhs-number",
            "type": {
              "coding": [
                {
                  "code": "NH",
                  "system": "http://terminology.hl7.org/CodeSystem/v2-0203"
                }
              ]
            },
            "value": "9737383192"
          },
          "reference": "urn:uuid:d1982d12-f0b5-4ddb-b758-a811f66b89d3"
        },
        "valueCodeableConcept": {
          "coding": [
            {
              "code": "NM_000249",
              "display": "NM_000249",
              "system": "http://www.ncbi.nlm.nih.gov/refseq"
            }
          ]
        }
      }
    },
    {
      "fullUrl": "urn:uuid:bea85be4-9ae1-4020-b4d7-6ab737162611",
      "resource": {
        "resourceType": "Observation",
        "code": {
          "coding": [
            {
              "code": "48018-6",
              "display": "Gene studied [ID]",
              "system": "http://loinc.org"
            }
          ]
        },
        "identifier": [
          {
            "assigner": {
              "identifier": {
                "system": "https://fhir.nhs.uk/Id/ods-organization-code",
                "value": "699X0"
              }
            },
            "system": "https://fhir.nwgenomics.nhs.uk/iGene/ReportIdentifier",
            "type": {
              "coding": [
                {
                  "code": "FILL",
                  "system": "http://terminology.hl7.org/CodeSystem/v2-0203"
                }
              ]
            },
            "value": "Gen825750"
          }
        ],
        "performer": [
          {
            "identifier": {
              "system": "https://fhir.nhs.uk/Id/ods-organization-code",
              "value": "699X0"
            },
            "type": "Organization"
          }
        ],
        "status": "final",
        "subject": {
          "identifier": {
            "system": "https://fhir.nhs.uk/Id/nhs-number",
            "type": {
              "coding": [
                {
                  "code": "NH",
                  "system": "http://terminology.hl7.org/CodeSystem/v2-0203"
                }
              ]
            },
            "value": "9737383192"
          },
          "reference": "urn:uuid:d1982d12-f0b5-4ddb-b758-a811f66b89d3"
        },
        "valueCodeableConcept": {
          "coding": [
            {
              "code": "4135",
              "display": "GALT",
              "system": "http://www.genenames.org"
            }
          ]
        }
      }
    },
    {
      "fullUrl": "urn:uuid:3dba04f0-9746-44a7-b8a4-2c4a35415acf",
      "resource": {
        "resourceType": "Observation",
        "code": {
          "coding": [
            {
              "code": "36908-2",
              "display": "Gene mutations tested",
              "system": "http://loinc.org"
            }
          ]
        },
        "identifier": [
          {
            "assigner": {
              "identifier": {
                "system": "https://fhir.nhs.uk/Id/ods-organization-code",
                "value": "699X0"
              }
            },
            "system": "https://fhir.nwgenomics.nhs.uk/iGene/ReportIdentifier",
            "type": {
              "coding": [
                {
                  "code": "FILL",
                  "system": "http://terminology.hl7.org/CodeSystem/v2-0203"
                }
              ]
            },
            "value": "Gen825750"
          }
        ],
        "performer": [
          {
            "identifier": {
              "system": "https://fhir.nhs.uk/Id/ods-organization-code",
              "value": "699X0"
            },
            "type": "Organization"
          }
        ],
        "status": "final",
        "subject": {
          "identifier": {
            "system": "https://fhir.nhs.uk/Id/nhs-number",
            "type": {
              "coding": [
                {
                  "code": "NH",
                  "system": "http://terminology.hl7.org/CodeSystem/v2-0203"
                }
              ]
            },
            "value": "9737383192"
          },
          "reference": "urn:uuid:d1982d12-f0b5-4ddb-b758-a811f66b89d3"
        },
        "valueCodeableConcept": {
          "coding": [
            {
              "code": "-119_-116delGTCA",
              "display": "-119_-116delGTCA",
              "system": "http://varnomen.hgvs.org"
            }
          ]
        }
      }
    },
    {
      "fullUrl": "urn:uuid:700501c6-8b5f-4209-aaf8-07b0461a19d2",
      "resource": {
        "resourceType": "Observation",
        "code": {
          "coding": [
            {
              "code": "36908-2",
              "display": "Gene mutations tested",
              "system": "http://loinc.org"
            }
          ]
        },
        "identifier": [
          {
            "assigner": {
              "identifier": {
                "system": "https://fhir.nhs.uk/Id/ods-organization-code",
                "value": "699X0"
              }
            },
            "system": "https://fhir.nwgenomics.nhs.uk/iGene/ReportIdentifier",
            "type": {
              "coding": [
                {
                  "code": "FILL",
                  "system": "http://terminology.hl7.org/CodeSystem/v2-0203"
                }
              ]
            },
            "value": "Gen825750"
          }
        ],
        "performer": [
          {
            "identifier": {
              "system": "https://fhir.nhs.uk/Id/ods-organization-code",
              "value": "699X0"
            },
            "type": "Organization"
          }
        ],
        "status": "final",
        "subject": {
          "identifier": {
            "system": "https://fhir.nhs.uk/Id/nhs-number",
            "type": {
              "coding": [
                {
                  "code": "NH",
                  "system": "http://terminology.hl7.org/CodeSystem/v2-0203"
                }
              ]
            },
            "value": "9737383192"
          },
          "reference": "urn:uuid:d1982d12-f0b5-4ddb-b758-a811f66b89d3"
        },
        "valueCodeableConcept": {
          "coding": [
            {
              "code": "Asp98Asn",
              "display": "Asp98Asn",
              "system": "http://varnomen.hgvs.org"
            }
          ]
        }
      }
    },
    {
      "fullUrl": "urn:uuid:88689b03-e5ff-4ad3-8aae-70dc748c348c",
      "resource": {
        "resourceType": "Observation",
        "code": {
          "coding": [
            {
              "code": "36908-2",
              "display": "Gene mutations tested",
              "system": "http://loinc.org"
            }
          ]
        },
        "identifier": [
          {
            "assigner": {
              "identifier": {
                "system": "https://fhir.nhs.uk/Id/ods-organization-code",
                "value": "699X0"
              }
            },
            "system": "https://fhir.nwgenomics.nhs.uk/iGene/ReportIdentifier",
            "type": {
              "coding": [
                {
                  "code": "FILL",
                  "system": "http://terminology.hl7.org/CodeSystem/v2-0203"
                }
              ]
            },
            "value": "Gen825750"
          }
        ],
        "performer": [
          {
            "identifier": {
              "system": "https://fhir.nhs.uk/Id/ods-organization-code",
              "value": "699X0"
            },
            "type": "Organization"
          }
        ],
        "status": "final",
        "subject": {
          "identifier": {
            "system": "https://fhir.nhs.uk/Id/nhs-number",
            "type": {
              "coding": [
                {
                  "code": "NH",
                  "system": "http://terminology.hl7.org/CodeSystem/v2-0203"
                }
              ]
            },
            "value": "9737383192"
          },
          "reference": "urn:uuid:d1982d12-f0b5-4ddb-b758-a811f66b89d3"
        },
        "valueCodeableConcept": {
          "coding": [
            {
              "code": "Gln188Arg",
              "display": "Gln188Arg",
              "system": "http://varnomen.hgvs.org"
            }
          ]
        }
      }
    },
    {
      "fullUrl": "urn:uuid:ccd3e21b-b483-46e4-8eb9-61dc9f956388",
      "resource": {
        "resourceType": "Observation",
        "code": {
          "coding": [
            {
              "code": "51968-6",
              "display": "Discrete variation analysis overall interpretation",
              "system": "http://loinc.org"
            }
          ]
        },
        "identifier": [
          {
            "assigner": {
              "identifier": {
                "system": "https://fhir.nhs.uk/Id/ods-organization-code",
                "value": "699X0"
              }
            },
            "system": "https://fhir.nwgenomics.nhs.uk/iGene/ReportIdentifier",
            "type": {
              "coding": [
                {
                  "code": "FILL",
                  "system": "http://terminology.hl7.org/CodeSystem/v2-0203"
                }
              ]
            },
            "value": "Gen825750"
          }
        ],
        "performer": [
          {
            "identifier": {
              "system": "https://fhir.nhs.uk/Id/ods-organization-code",
              "value": "699X0"
            },
            "type": "Organization"
          }
        ],
        "status": "final",
        "subject": {
          "identifier": {
            "system": "https://fhir.nhs.uk/Id/nhs-number",
            "type": {
              "coding": [
                {
                  "code": "NH",
                  "system": "http://terminology.hl7.org/CodeSystem/v2-0203"
                }
              ]
            },
            "value": "9737383192"
          },
          "reference": "urn:uuid:d1982d12-f0b5-4ddb-b758-a811f66b89d3"
        },
        "valueCodeableConcept": {
          "coding": [
            {
              "code": "LA6576-8",
              "display": "Positive",
              "system": "http://loinc.org"
            }
          ]
        }
      }
    },
    {
      "fullUrl": "urn:uuid:3cad98bc-d7df-4ce1-a403-09b2ccb188b9",
      "resource": {
        "resourceType": "Binary",
        "contentType": "application/pdf",
        "data": ""
      }
    },
    {
      "fullUrl": "urn:uuid:3ea9449a-f9d1-4e7a-b17f-20b6b317b05a",
      "resource": {
        "resourceType": "DocumentReference",
        "content": [
          {
            "attachment": {
              "contentType": "application/pdf",
              "url": "urn:uuid:3cad98bc-d7df-4ce1-a403-09b2ccb188b9"
            }
          }
        ],
        "context": {
          "period": {
            "end": "2016-08-09T16:50:00+00:00",
            "start": "2016-08-09T16:50:00+00:00"
          },
          "related": [
            {
              "identifier": {
                "assigner": {
                  "identifier": {
                    "system": "https://fhir.nhs.uk/Id/ods-organization-code",
                    "value": "ROA"
                  }
                },
                "system": "urn:oid:1.2.840.114350.1.13.861.1.7.2.798268",
                "type": {
                  "coding": [
                    {
                      "code": "PLAC",
                      "system": "http://terminology.hl7.org/CodeSystem/v2-0203"
                    }
                  ]
                },
                "value": "1601716017"
              },
              "reference": "urn:uuid:5fc1c335-2def-472c-a8d7-b28cc124dafc",
              "type": "ServiceRequest"
            },
            {
              "identifier": {
                "assigner": {
                  "identifier": {
                    "system": "https://fhir.nhs.uk/Id/ods-organization-code",
                    "value": "699X0"
                  }
                },
                "system": "https://fhir.nwgenomics.nhs.uk/iGene/ReportIdentifier",
                "type": {
                  "coding": [
                    {
                      "code": "FILL",
                      "system": "http://terminology.hl7.org/CodeSystem/v2-0203"
                    }
                  ]
                },
                "value": "Gen825750"
              },
              "reference": "urn:uuid:554143ad-081e-4cce-b616-1cc593c564dd",
              "type": "DiagnosticReport"
            }
          ],
          "sourcePatientInfo": {
            "identifier": {
              "assigner": {
                "identifier": {
                  "system": "https://fhir.nhs.uk/Id/ods-organization-code",
                  "value": "R0A"
                }
              },
              "system": "urn:oid:1.2.840.114350.1.13.611.3.7.5.737384.14",
              "type": {
                "coding": [
                  {
                    "code": "MR",
                    "system": "http://terminology.hl7.org/CodeSystem/v2-0203"
                  }
                ]
              },
              "value": "1234567"
            }
          }
        },
        "custodian": {
          "identifier": {
            "system": "https://fhir.nhs.uk/Id/ods-organization-code",
            "value": "699X0"
          },
          "type": "Organization"
        },
        "date": "2016-08-09T16:50:00+00:00",
        "identifier": [
          {
            "assigner": {
              "identifier": {
                "system": "https://fhir.nhs.uk/Id/ods-organization-code",
                "value": "699X0"
              }
            },
            "system": "https://fhir.nwgenomics.nhs.uk/iGene/ReportIdentifier",
            "type": {
              "coding": [
                {
                  "code": "FILL",
                  "system": "http://terminology.hl7.org/CodeSystem/v2-0203"
                }
              ]
            },
            "value": "Gen825750"
          }
        ],
        "status": "current",
        "subject": {
          "identifier": {
            "system": "https://fhir.nhs.uk/Id/nhs-number",
            "type": {
              "coding": [
                {
                  "code": "NH",
                  "system": "http://terminology.hl7.org/CodeSystem/v2-0203"
                }
              ]
            },
            "value": "9737383192"
          },
          "reference": "urn:uuid:d1982d12-f0b5-4ddb-b758-a811f66b89d3"
        },
        "type": {
          "coding": [
            {
              "code": "1054161000000101",
              "display": "Genetic report",
              "system": "http://snomed.info/sct"
            }
          ]
        }
      }
    },
    {
      "fullUrl": "urn:uuid:08919d44-6bd3-4475-8a4a-93d18bbf17df",
      "resource": {
        "resourceType": "Observation",
        "code": {
          "coding": [
            {
              "code": "62374-4",
              "display": "Human reference sequence assembly",
              "system": "http://loinc.org"
            }
          ]
        },
        "identifier": [
          {
            "assigner": {
              "identifier": {
                "system": "https://fhir.nhs.uk/Id/ods-organization-code",
                "value": "699X0"
              }
            },
            "system": "https://fhir.nwgenomics.nhs.uk/iGene/ReportIdentifier",
            "type": {
              "coding": [
                {
                  "code": "FILL",
                  "system": "http://terminology.hl7.org/CodeSystem/v2-0203"
                }
              ]
            },
            "value": "Gen825750"
          }
        ],
        "performer": [
          {
            "identifier": {
              "system": "https://fhir.nhs.uk/Id/ods-organization-code",
              "value": "699X0"
            },
            "type": "Organization"
          }
        ],
        "status": "final",
        "subject": {
          "identifier": {
            "system": "https://fhir.nhs.uk/Id/nhs-number",
            "type": {
              "coding": [
                {
                  "code": "NH",
                  "system": "http://terminology.hl7.org/CodeSystem/v2-0203"
                }
              ]
            },
            "value": "9737383192"
          },
          "reference": "urn:uuid:d1982d12-f0b5-4ddb-b758-a811f66b89d3"
        },
        "valueCodeableConcept": {
          "coding": [
            {
              "code": "LA14029-5",
              "display": "GRCh37",
              "system": "http://loinc.org"
            }
          ]
        }
      }
    },
    {
      "fullUrl": "urn:uuid:4a73f886-a055-4608-b27e-554c47c65414",
      "resource": {
        "resourceType": "Observation",
        "code": {
          "coding": [
            {
              "code": "82115-7",
              "display": "dbSNP version",
              "system": "http://loinc.org"
            }
          ]
        },
        "identifier": [
          {
            "assigner": {
              "identifier": {
                "system": "https://fhir.nhs.uk/Id/ods-organization-code",
                "value": "699X0"
              }
            },
            "system": "https://fhir.nwgenomics.nhs.uk/iGene/ReportIdentifier",
            "type": {
              "coding": [
                {
                  "code": "FILL",
                  "system": "http://terminology.hl7.org/CodeSystem/v2-0203"
                }
              ]
            },
            "value": "Gen825750"
          }
        ],
        "performer": [
          {
            "identifier": {
              "system": "https://fhir.nhs.uk/Id/ods-organization-code",
              "value": "699X0"
            },
            "type": "Organization"
          }
        ],
        "status": "final",
        "subject": {
          "identifier": {
            "system": "https://fhir.nhs.uk/Id/nhs-number",
            "type": {
              "coding": [
                {
                  "code": "NH",
                  "system": "http://terminology.hl7.org/CodeSystem/v2-0203"
                }
              ]
            },
            "value": "9737383192"
          },
          "reference": "urn:uuid:d1982d12-f0b5-4ddb-b758-a811f66b89d3"
        },
        "valueQuantity": {
          "system": "http://unitsofmeasure.org",
          "unit": "Attributes of Discrete Genetic Variants: Report Section 2",
          "value": 147
        }
      }
    },
    {
      "fullUrl": "urn:uuid:c75c5795-813a-424e-a2ae-e6b579d9da63",
      "resource": {
        "resourceType": "Observation",
        "code": {
          "coding": [
            {
              "code": "83005-9",
              "display": "Variant Category",
              "system": "http://loinc.org"
            }
          ]
        },
        "identifier": [
          {
            "assigner": {
              "identifier": {
                "system": "https://fhir.nhs.uk/Id/ods-organization-code",
                "value": "699X0"
              }
            },
            "system": "https://fhir.nwgenomics.nhs.uk/iGene/ReportIdentifier",
            "type": {
              "coding": [
                {
                  "code": "FILL",
                  "system": "http://terminology.hl7.org/CodeSystem/v2-0203"
                }
              ]
            },
            "value": "Gen825750"
          }
        ],
        "performer": [
          {
            "identifier": {
              "system": "https://fhir.nhs.uk/Id/ods-organization-code",
              "value": "699X0"
            },
            "type": "Organization"
          }
        ],
        "status": "final",
        "subject": {
          "identifier": {
            "system": "https://fhir.nhs.uk/Id/nhs-number",
            "type": {
              "coding": [
                {
                  "code": "NH",
                  "system": "http://terminology.hl7.org/CodeSystem/v2-0203"
                }
              ]
            },
            "value": "9737383192"
          },
          "reference": "urn:uuid:d1982d12-f0b5-4ddb-b758-a811f66b89d3"
        },
        "valueCodeableConcept": {
          "coding": [
            {
              "code": "LA26801-3",
              "display": "Simple Variant",
              "system": "http://loinc.org"
            }
          ]
        }
      }
    },
    {
      "fullUrl": "urn:uuid:e55d0314-6252-4552-bef0-2a8eed27aa10",
      "resource": {
        "resourceType": "Observation",
        "code": {
          "coding": [
            {
              "code": "81252-9",
              "display": "Discrete genetic variant",
              "system": "http://loinc.org"
            }
          ]
        },
        "identifier": [
          {
            "assigner": {
              "identifier": {
                "system": "https://fhir.nhs.uk/Id/ods-organization-code",
                "value": "699X0"
              }
            },
            "system": "https://fhir.nwgenomics.nhs.uk/iGene/ReportIdentifier",
            "type": {
              "coding": [
                {
                  "code": "FILL",
                  "system": "http://terminology.hl7.org/CodeSystem/v2-0203"
                }
              ]
            },
            "value": "Gen825750"
          }
        ],
        "performer": [
          {
            "identifier": {
              "system": "https://fhir.nhs.uk/Id/ods-organization-code",
              "value": "699X0"
            },
            "type": "Organization"
          }
        ],
        "status": "final",
        "subject": {
          "identifier": {
            "system": "https://fhir.nhs.uk/Id/nhs-number",
            "type": {
              "coding": [
                {
                  "code": "NH",
                  "system": "http://terminology.hl7.org/CodeSystem/v2-0203"
                }
              ]
            },
            "value": "9737383192"
          },
          "reference": "urn:uuid:d1982d12-f0b5-4ddb-b758-a811f66b89d3"
        },
        "valueCodeableConcept": {
          "coding": [
            {
              "code": "3614",
              "display": "NM_000155.3(GALT):c.563A>G(p.Gln188Arg)",
              "system": "http://www.ncbi.nlm.nih.gov/clinvar"
            }
          ]
        }
      }
    },
    {
      "fullUrl": "urn:uuid:3e0c3bb6-0c99-4ea7-a59f-6e8860a5af08",
      "resource": {
        "resourceType": "Observation",
        "code": {
          "coding": [
            {
              "code": "48018-6",
              "display": "Gene studied",
              "system": "http://loinc.org"
            }
          ]
        },
        "identifier": [
          {
            "assigner": {
              "identifier": {
                "system": "https://fhir.nhs.uk/Id/ods-organization-code",
                "value": "699X0"
              }
            },
            "system": "https://fhir.nwgenomics.nhs.uk/iGene/ReportIdentifier",
            "type": {
              "coding": [
                {
                  "code": "FILL",
                  "system": "http://terminology.hl7.org/CodeSystem/v2-0203"
                }
              ]
            },
            "value": "Gen825750"
          }
        ],
        "performer": [
          {
            "identifier": {
              "system": "https://fhir.nhs.uk/Id/ods-organization-code",
              "value": "699X0"
            },
            "type": "Organization"
          }
        ],
        "status": "final",
        "subject": {
          "identifier": {
            "system": "https://fhir.nhs.uk/Id/nhs-number",
            "type": {
              "coding": [
                {
                  "code": "NH",
                  "system": "http://terminology.hl7.org/CodeSystem/v2-0203"
                }
              ]
            },
            "value": "9737383192"
          },
          "reference": "urn:uuid:d1982d12-f0b5-4ddb-b758-a811f66b89d3"
        },
        "valueCodeableConcept": {
          "coding": [
            {
              "code": "3614",
              "display": "GALT",
              "system": "http://www.genenames.org"
            }
          ]
        }
      }
    },
    {
      "fullUrl": "urn:uuid:a8ffd36d-0fcf-4e6f-b83b-cc0bbf7eb315",
      "resource": {
        "resourceType": "Observation",
        "code": {
          "coding": [
            {
              "code": "51958-7",
              "display": "Transcript RefSeq ID",
              "system": "http://loinc.org"
            }
          ]
        },
        "identifier": [
          {
            "assigner": {
              "identifier": {
                "system": "https://fhir.nhs.uk/Id/ods-organization-code",
                "value": "699X0"
              }
            },
            "system": "https://fhir.nwgenomics.nhs.uk/iGene/ReportIdentifier",
            "type": {
              "coding": [
                {
                  "code": "FILL",
                  "system": "http://terminology.hl7.org/CodeSystem/v2-0203"
                }
              ]
            },
            "value": "Gen825750"
          }
        ],
        "performer": [
          {
            "identifier": {
              "system": "https://fhir.nhs.uk/Id/ods-organization-code",
              "value": "699X0"
            },
            "type": "Organization"
          }
        ],
        "status": "final",
        "subject": {
          "identifier": {
            "system": "https://fhir.nhs.uk/Id/nhs-number",
            "type": {
              "coding": [
                {
                  "code": "NH",
                  "system": "http://terminology.hl7.org/CodeSystem/v2-0203"
                }
              ]
            },
            "value": "9737383192"
          },
          "reference": "urn:uuid:d1982d12-f0b5-4ddb-b758-a811f66b89d3"
        },
        "valueCodeableConcept": {
          "coding": [
            {
              "code": "NM_000155.3",
              "display": "NM_000155.3",
              "system": "http://www.ncbi.nlm.nih.gov/refseq"
            }
          ]
        }
      }
    },
    {
      "fullUrl": "urn:uuid:1f3f1b28-aea8-4b07-b84e-2b42a3cd37e8",
      "resource": {
        "resourceType": "Observation",
        "code": {
          "coding": [
            {
              "code": "41103-3",
              "display": "Transcript DNA Change (cHGVS)",
              "system": "http://loinc.org"
            }
          ]
        },
        "identifier": [
          {
            "assigner": {
              "identifier": {
                "system": "https://fhir.nhs.uk/Id/ods-organization-code",
                "value": "699X0"
              }
            },
            "system": "https://fhir.nwgenomics.nhs.uk/iGene/ReportIdentifier",
            "type": {
              "coding": [
                {
                  "code": "FILL",
                  "system": "http://terminology.hl7.org/CodeSystem/v2-0203"
                }
              ]
            },
            "value": "Gen825750"
          }
        ],
        "performer": [
          {
            "identifier": {
              "system": "https://fhir.nhs.uk/Id/ods-organization-code",
              "value": "699X0"
            },
            "type": "Organization"
          }
        ],
        "status": "final",
        "subject": {
          "identifier": {
            "system": "https://fhir.nhs.uk/Id/nhs-number",
            "type": {
              "coding": [
                {
                  "code": "NH",
                  "system": "http://terminology.hl7.org/CodeSystem/v2-0203"
                }
              ]
            },
            "value": "9737383192"
          },
          "reference": "urn:uuid:d1982d12-f0b5-4ddb-b758-a811f66b89d3"
        },
        "valueCodeableConcept": {
          "coding": [
            {
              "code": "c.563A>G",
              "display": "c.563A>G",
              "system": "http://varnomen.hgvs.org"
            }
          ]
        }
      }
    },
    {
      "fullUrl": "urn:uuid:66f9b0e4-e761-43de-933a-b6aae389ca33",
      "resource": {
        "resourceType": "Observation",
        "code": {
          "coding": [
            {
              "code": "48005-3",
              "display": "Amino acid change p.HGVS",
              "system": "http://loinc.org"
            }
          ]
        },
        "identifier": [
          {
            "assigner": {
              "identifier": {
                "system": "https://fhir.nhs.uk/Id/ods-organization-code",
                "value": "699X0"
              }
            },
            "system": "https://fhir.nwgenomics.nhs.uk/iGene/ReportIdentifier",
            "type": {
              "coding": [
                {
                  "code": "FILL",
                  "system": "http://terminology.hl7.org/CodeSystem/v2-0203"
                }
              ]
            },
            "value": "Gen825750"
          }
        ],
        "performer": [
          {
            "identifier": {
              "system": "https://fhir.nhs.uk/Id/ods-organization-code",
              "value": "699X0"
            },
            "type": "Organization"
          }
        ],
        "status": "final",
        "subject": {
          "identifier": {
            "system": "https://fhir.nhs.uk/Id/nhs-number",
            "type": {
              "coding": [
                {
                  "code": "NH",
                  "system": "http://terminology.hl7.org/CodeSystem/v2-0203"
                }
              ]
            },
            "value": "9737383192"
          },
          "reference": "urn:uuid:d1982d12-f0b5-4ddb-b758-a811f66b89d3"
        },
        "valueCodeableConcept": {
          "coding": [
            {
              "code": "p.Gln188Arg",
              "display": "p.Gln188Arg",
              "system": "http://varnomen.hgvs.org"
            }
          ]
        }
      }
    },
    {
      "fullUrl": "urn:uuid:50d28cce-9822-460d-a66f-40ab10409e0b",
      "resource": {
        "resourceType": "Observation",
        "code": {
          "coding": [
            {
              "code": "48019-4",
              "display": "DNA change type",
              "system": "http://loinc.org"
            }
          ]
        },
        "identifier": [
          {
            "assigner": {
              "identifier": {
                "system": "https://fhir.nhs.uk/Id/ods-organization-code",
                "value": "699X0"
              }
            },
            "system": "https://fhir.nwgenomics.nhs.uk/iGene/ReportIdentifier",
            "type": {
              "coding": [
                {
                  "code": "FILL",
                  "system": "http://terminology.hl7.org/CodeSystem/v2-0203"
                }
              ]
            },
            "value": "Gen825750"
          }
        ],
        "performer": [
          {
            "identifier": {
              "system": "https://fhir.nhs.uk/Id/ods-organization-code",
              "value": "699X0"
            },
            "type": "Organization"
          }
        ],
        "status": "final",
        "subject": {
          "identifier": {
            "system": "https://fhir.nhs.uk/Id/nhs-number",
            "type": {
              "coding": [
                {
                  "code": "NH",
                  "system": "http://terminology.hl7.org/CodeSystem/v2-0203"
                }
              ]
            },
            "value": "9737383192"
          },
          "reference": "urn:uuid:d1982d12-f0b5-4ddb-b758-a811f66b89d3"
        },
        "valueCodeableConcept": {
          "coding": [
            {
              "code": "LA6690-7",
              "display": "Substitution",
              "system": "http://loinc.org"
            }
          ]
        }
      }
    },
    {
      "fullUrl": "urn:uuid:fc871bd3-f134-45aa-993a-ddc5c9d5e341",
      "resource": {
        "resourceType": "Observation",
        "code": {
          "coding": [
            {
              "code": "48006-1",
              "display": "Amino Acid change type"
            }
          ]
        },
        "identifier": [
          {
            "assigner": {
              "identifier": {
                "system": "https://fhir.nhs.uk/Id/ods-organization-code",
                "value": "699X0"
              }
            },
            "system": "https://fhir.nwgenomics.nhs.uk/iGene/ReportIdentifier",
            "type": {
              "coding": [
                {
                  "code": "FILL",
                  "system": "http://terminology.hl7.org/CodeSystem/v2-0203"
                }
              ]
            },
            "value": "Gen825750"
          }
        ],
        "performer": [
          {
            "identifier": {
              "system": "https://fhir.nhs.uk/Id/ods-organization-code",
              "value": "699X0"
            },
            "type": "Organization"
          }
        ],
        "status": "final",
        "subject": {
          "identifier": {
            "system": "https://fhir.nhs.uk/Id/nhs-number",
            "type": {
              "coding": [
                {
                  "code": "NH",
                  "system": "http://terminology.hl7.org/CodeSystem/v2-0203"
                }
              ]
            },
            "value": "9737383192"
          },
          "reference": "urn:uuid:d1982d12-f0b5-4ddb-b758-a811f66b89d3"
        },
        "valueCodeableConcept": {
          "coding": [
            {
              "code": "LA6698-0",
              "display": "Missense",
              "system": "http://loinc.org"
            }
          ]
        }
      }
    },
    {
      "fullUrl": "urn:uuid:f0782bdc-a0f4-441f-87ed-cddc622f01e2",
      "resource": {
        "resourceType": "Observation",
        "code": {
          "coding": [
            {
              "code": "48013-7",
              "display": "Genomic reference sequence",
              "system": "http://loinc.org"
            }
          ]
        },
        "identifier": [
          {
            "assigner": {
              "identifier": {
                "system": "https://fhir.nhs.uk/Id/ods-organization-code",
                "value": "699X0"
              }
            },
            "system": "https://fhir.nwgenomics.nhs.uk/iGene/ReportIdentifier",
            "type": {
              "coding": [
                {
                  "code": "FILL",
                  "system": "http://terminology.hl7.org/CodeSystem/v2-0203"
                }
              ]
            },
            "value": "Gen825750"
          }
        ],
        "performer": [
          {
            "identifier": {
              "system": "https://fhir.nhs.uk/Id/ods-organization-code",
              "value": "699X0"
            },
            "type": "Organization"
          }
        ],
        "status": "final",
        "subject": {
          "identifier": {
            "system": "https://fhir.nhs.uk/Id/nhs-number",
            "type": {
              "coding": [
                {
                  "code": "NH",
                  "system": "http://terminology.hl7.org/CodeSystem/v2-0203"
                }
              ]
            },
            "value": "9737383192"
          },
          "reference": "urn:uuid:d1982d12-f0b5-4ddb-b758-a811f66b89d3"
        },
        "valueCodeableConcept": {
          "coding": [
            {
              "code": "NG_009029.1:g.6533A>G",
              "display": "NG_009029.1:g.6533A>G",
              "system": "http://www.ncbi.nlm.nih.gov/refseq"
            }
          ]
        }
      }
    },
    {
      "fullUrl": "urn:uuid:e7be7f0f-5dab-4231-a556-a35d8d029311",
      "resource": {
        "resourceType": "Observation",
        "code": {
          "coding": [
            {
              "code": "81290-9",
              "display": "Genomic DNA change(gHGVS)",
              "system": "http://loinc.org"
            }
          ]
        },
        "identifier": [
          {
            "assigner": {
              "identifier": {
                "system": "https://fhir.nhs.uk/Id/ods-organization-code",
                "value": "699X0"
              }
            },
            "system": "https://fhir.nwgenomics.nhs.uk/iGene/ReportIdentifier",
            "type": {
              "coding": [
                {
                  "code": "FILL",
                  "system": "http://terminology.hl7.org/CodeSystem/v2-0203"
                }
              ]
            },
            "value": "Gen825750"
          }
        ],
        "performer": [
          {
            "identifier": {
              "system": "https://fhir.nhs.uk/Id/ods-organization-code",
              "value": "699X0"
            },
            "type": "Organization"
          }
        ],
        "status": "final",
        "subject": {
          "identifier": {
            "system": "https://fhir.nhs.uk/Id/nhs-number",
            "type": {
              "coding": [
                {
                  "code": "NH",
                  "system": "http://terminology.hl7.org/CodeSystem/v2-0203"
                }
              ]
            },
            "value": "9737383192"
          },
          "reference": "urn:uuid:d1982d12-f0b5-4ddb-b758-a811f66b89d3"
        },
        "valueCodeableConcept": {
          "coding": [
            {
              "code": "NC_000009.11:g.34648167A>G",
              "display": "NC_000009.11:g.34648167A>G",
              "system": "http://varnomen.hgvs.org"
            }
          ]
        }
      }
    },
    {
      "fullUrl": "urn:uuid:3d845aa8-8eca-4243-8309-14012a9d539e",
      "resource": {
        "resourceType": "Observation",
        "code": {
          "coding": [
            {
              "code": "69547-8",
              "display": "Genomic ref allele",
              "system": "http://loinc.org"
            }
          ]
        },
        "identifier": [
          {
            "assigner": {
              "identifier": {
                "system": "https://fhir.nhs.uk/Id/ods-organization-code",
                "value": "699X0"
              }
            },
            "system": "https://fhir.nwgenomics.nhs.uk/iGene/ReportIdentifier",
            "type": {
              "coding": [
                {
                  "code": "FILL",
                  "system": "http://terminology.hl7.org/CodeSystem/v2-0203"
                }
              ]
            },
            "value": "Gen825750"
          }
        ],
        "performer": [
          {
            "identifier": {
              "system": "https://fhir.nhs.uk/Id/ods-organization-code",
              "value": "699X0"
            },
            "type": "Organization"
          }
        ],
        "status": "final",
        "subject": {
          "identifier": {
            "system": "https://fhir.nhs.uk/Id/nhs-number",
            "type": {
              "coding": [
                {
                  "code": "NH",
                  "system": "http://terminology.hl7.org/CodeSystem/v2-0203"
                }
              ]
            },
            "value": "9737383192"
          },
          "reference": "urn:uuid:d1982d12-f0b5-4ddb-b758-a811f66b89d3"
        },
        "valueString": "A"
      }
    },
    {
      "fullUrl": "urn:uuid:607fb2a0-b7b5-4380-8494-435e0cba6ae4",
      "resource": {
        "resourceType": "Observation",
        "code": {
          "coding": [
            {
              "code": "81254-5",
              "display": "Genomic allele start-end",
              "system": "http://loinc.org"
            }
          ]
        },
        "identifier": [
          {
            "assigner": {
              "identifier": {
                "system": "https://fhir.nhs.uk/Id/ods-organization-code",
                "value": "699X0"
              }
            },
            "system": "https://fhir.nwgenomics.nhs.uk/iGene/ReportIdentifier",
            "type": {
              "coding": [
                {
                  "code": "FILL",
                  "system": "http://terminology.hl7.org/CodeSystem/v2-0203"
                }
              ]
            },
            "value": "Gen825750"
          }
        ],
        "performer": [
          {
            "identifier": {
              "system": "https://fhir.nhs.uk/Id/ods-organization-code",
              "value": "699X0"
            },
            "type": "Organization"
          }
        ],
        "status": "final",
        "subject": {
          "identifier": {
            "system": "https://fhir.nhs.uk/Id/nhs-number",
            "type": {
              "coding": [
                {
                  "code": "NH",
                  "system": "http://terminology.hl7.org/CodeSystem/v2-0203"
                }
              ]
            },
            "value": "9737383192"
          },
          "reference": "urn:uuid:d1982d12-f0b5-4ddb-b758-a811f66b89d3"
        }
      }
    },
    {
      "fullUrl": "urn:uuid:37b54323-2ba3-4508-9c18-f065ed9f586b",
      "resource": {
        "resourceType": "Observation",
        "code": {
          "coding": [
            {
              "code": "69551-0",
              "display": "Genomic alt allele",
              "system": "http://loinc.org"
            }
          ]
        },
        "identifier": [
          {
            "assigner": {
              "identifier": {
                "system": "https://fhir.nhs.uk/Id/ods-organization-code",
                "value": "699X0"
              }
            },
            "system": "https://fhir.nwgenomics.nhs.uk/iGene/ReportIdentifier",
            "type": {
              "coding": [
                {
                  "code": "FILL",
                  "system": "http://terminology.hl7.org/CodeSystem/v2-0203"
                }
              ]
            },
            "value": "Gen825750"
          }
        ],
        "performer": [
          {
            "identifier": {
              "system": "https://fhir.nhs.uk/Id/ods-organization-code",
              "value": "699X0"
            },
            "type": "Organization"
          }
        ],
        "status": "final",
        "subject": {
          "identifier": {
            "system": "https://fhir.nhs.uk/Id/nhs-number",
            "type": {
              "coding": [
                {
                  "code": "NH",
                  "system": "http://terminology.hl7.org/CodeSystem/v2-0203"
                }
              ]
            },
            "value": "9737383192"
          },
          "reference": "urn:uuid:d1982d12-f0b5-4ddb-b758-a811f66b89d3"
        },
        "valueString": "G"
      }
    },
    {
      "fullUrl": "urn:uuid:d8a7389a-afc7-4d14-878d-9a4ef9dbec8f",
      "resource": {
        "resourceType": "Observation",
        "code": {
          "coding": [
            {
              "code": "81255-2",
              "display": "dbSNP ID",
              "system": "http://loinc.org"
            }
          ]
        },
        "identifier": [
          {
            "assigner": {
              "identifier": {
                "system": "https://fhir.nhs.uk/Id/ods-organization-code",
                "value": "699X0"
              }
            },
            "system": "https://fhir.nwgenomics.nhs.uk/iGene/ReportIdentifier",
            "type": {
              "coding": [
                {
                  "code": "FILL",
                  "system": "http://terminology.hl7.org/CodeSystem/v2-0203"
                }
              ]
            },
            "value": "Gen825750"
          }
        ],
        "performer": [
          {
            "identifier": {
              "system": "https://fhir.nhs.uk/Id/ods-organization-code",
              "value": "699X0"
            },
            "type": "Organization"
          }
        ],
        "status": "final",
        "subject": {
          "identifier": {
            "system": "https://fhir.nhs.uk/Id/nhs-number",
            "type": {
              "coding": [
                {
                  "code": "NH",
                  "system": "http://terminology.hl7.org/CodeSystem/v2-0203"
                }
              ]
            },
            "value": "9737383192"
          },
          "reference": "urn:uuid:d1982d12-f0b5-4ddb-b758-a811f66b89d3"
        },
        "valueCodeableConcept": {
          "coding": [
            {
              "code": "rs75391579",
              "display": "rs75391579",
              "system": "http://www.ncbi.nlm.nih.gov/projects/SNP"
            }
          ]
        }
      }
    },
    {
      "fullUrl": "urn:uuid:f40ad4fc-78bf-4554-8bdd-e0e8de8e0682",
      "resource": {
        "resourceType": "Observation",
        "code": {
          "coding": [
            {
              "code": "48001-2",
              "display": "Cytogenetic (chromosome) location",
              "system": "http://loinc.org"
            }
          ]
        },
        "identifier": [
          {
            "assigner": {
              "identifier": {
                "system": "https://fhir.nhs.uk/Id/ods-organization-code",
                "value": "699X0"
              }
            },
            "system": "https://fhir.nwgenomics.nhs.uk/iGene/ReportIdentifier",
            "type": {
              "coding": [
                {
                  "code": "FILL",
                  "system": "http://terminology.hl7.org/CodeSystem/v2-0203"
                }
              ]
            },
            "value": "Gen825750"
          }
        ],
        "performer": [
          {
            "identifier": {
              "system": "https://fhir.nhs.uk/Id/ods-organization-code",
              "value": "699X0"
            },
            "type": "Organization"
          }
        ],
        "status": "final",
        "subject": {
          "identifier": {
            "system": "https://fhir.nhs.uk/Id/nhs-number",
            "type": {
              "coding": [
                {
                  "code": "NH",
                  "system": "http://terminology.hl7.org/CodeSystem/v2-0203"
                }
              ]
            },
            "value": "9737383192"
          },
          "reference": "urn:uuid:d1982d12-f0b5-4ddb-b758-a811f66b89d3"
        },
        "valueCodeableConcept": {
          "coding": [
            {
              "code": "9p13",
              "display": "9p13",
              "system": "Chrom-Loc"
            }
          ]
        }
      }
    },
    {
      "fullUrl": "urn:uuid:d3dbed5d-476e-41fa-b18d-3945e21b0262",
      "resource": {
        "resourceType": "Observation",
        "code": {
          "coding": [
            {
              "code": "48002-0",
              "display": "Genomic source class",
              "system": "http://loinc.org"
            }
          ]
        },
        "identifier": [
          {
            "assigner": {
              "identifier": {
                "system": "https://fhir.nhs.uk/Id/ods-organization-code",
                "value": "699X0"
              }
            },
            "system": "https://fhir.nwgenomics.nhs.uk/iGene/ReportIdentifier",
            "type": {
              "coding": [
                {
                  "code": "FILL",
                  "system": "http://terminology.hl7.org/CodeSystem/v2-0203"
                }
              ]
            },
            "value": "Gen825750"
          }
        ],
        "performer": [
          {
            "identifier": {
              "system": "https://fhir.nhs.uk/Id/ods-organization-code",
              "value": "699X0"
            },
            "type": "Organization"
          }
        ],
        "status": "final",
        "subject": {
          "identifier": {
            "system": "https://fhir.nhs.uk/Id/nhs-number",
            "type": {
              "coding": [
                {
                  "code": "NH",
                  "system": "http://terminology.hl7.org/CodeSystem/v2-0203"
                }
              ]
            },
            "value": "9737383192"
          },
          "reference": "urn:uuid:d1982d12-f0b5-4ddb-b758-a811f66b89d3"
        },
        "valueCodeableConcept": {
          "coding": [
            {
              "code": "LA6683-2",
              "display": "Germline",
              "system": "http://loinc.org"
            }
          ]
        }
      }
    },
    {
      "fullUrl": "urn:uuid:934b77ed-de31-429b-b27a-1666ec70be05",
      "resource": {
        "resourceType": "Observation",
        "code": {
          "coding": [
            {
              "code": "81304-8",
              "display": "Variant analysis method type",
              "system": "http://loinc.org"
            }
          ]
        },
        "identifier": [
          {
            "assigner": {
              "identifier": {
                "system": "https://fhir.nhs.uk/Id/ods-organization-code",
                "value": "699X0"
              }
            },
            "system": "https://fhir.nwgenomics.nhs.uk/iGene/ReportIdentifier",
            "type": {
              "coding": [
                {
                  "code": "FILL",
                  "system": "http://terminology.hl7.org/CodeSystem/v2-0203"
                }
              ]
            },
            "value": "Gen825750"
          }
        ],
        "performer": [
          {
            "identifier": {
              "system": "https://fhir.nhs.uk/Id/ods-organization-code",
              "value": "699X0"
            },
            "type": "Organization"
          }
        ],
        "status": "final",
        "subject": {
          "identifier": {
            "system": "https://fhir.nhs.uk/Id/nhs-number",
            "type": {
              "coding": [
                {
                  "code": "NH",
                  "system": "http://terminology.hl7.org/CodeSystem/v2-0203"
                }
              ]
            },
            "value": "9737383192"
          },
          "reference": "urn:uuid:d1982d12-f0b5-4ddb-b758-a811f66b89d3"
        },
        "valueCodeableConcept": {
          "coding": [
            {
              "code": "LA26418-6",
              "display": "PCR",
              "system": "http://loinc.org"
            }
          ]
        }
      }
    },
    {
      "fullUrl": "urn:uuid:96e334cc-db56-40d8-8f9d-78e96f8bbec5",
      "resource": {
        "resourceType": "Observation",
        "code": {
          "coding": [
            {
              "code": "53037-8",
              "display": "Genetic variation clinical significance",
              "system": "http://loinc.org"
            }
          ]
        },
        "identifier": [
          {
            "assigner": {
              "identifier": {
                "system": "https://fhir.nhs.uk/Id/ods-organization-code",
                "value": "699X0"
              }
            },
            "system": "https://fhir.nwgenomics.nhs.uk/iGene/ReportIdentifier",
            "type": {
              "coding": [
                {
                  "code": "FILL",
                  "system": "http://terminology.hl7.org/CodeSystem/v2-0203"
                }
              ]
            },
            "value": "Gen825750"
          }
        ],
        "performer": [
          {
            "identifier": {
              "system": "https://fhir.nhs.uk/Id/ods-organization-code",
              "value": "699X0"
            },
            "type": "Organization"
          }
        ],
        "status": "final",
        "subject": {
          "identifier": {
            "system": "https://fhir.nhs.uk/Id/nhs-number",
            "type": {
              "coding": [
                {
                  "code": "NH",
                  "system": "http://terminology.hl7.org/CodeSystem/v2-0203"
                }
              ]
            },
            "value": "9737383192"
          },
          "reference": "urn:uuid:d1982d12-f0b5-4ddb-b758-a811f66b89d3"
        },
        "valueCodeableConcept": {
          "coding": [
            {
              "code": "LA6668-3",
              "display": "Pathogenic",
              "system": "http://loinc.org"
            }
          ]
        }
      }
    },
    {
      "fullUrl": "urn:uuid:7d43b7f1-64f0-4f51-8bf7-a6da730d6cd3",
      "resource": {
        "resourceType": "Observation",
        "code": {
          "coding": [
            {
              "code": "69548-6",
              "display": "Genetic variant assessment",
              "system": "http://loinc.org"
            }
          ]
        },
        "identifier": [
          {
            "assigner": {
              "identifier": {
                "system": "https://fhir.nhs.uk/Id/ods-organization-code",
                "value": "699X0"
              }
            },
            "system": "https://fhir.nwgenomics.nhs.uk/iGene/ReportIdentifier",
            "type": {
              "coding": [
                {
                  "code": "FILL",
                  "system": "http://terminology.hl7.org/CodeSystem/v2-0203"
                }
              ]
            },
            "value": "Gen825750"
          }
        ],
        "performer": [
          {
            "identifier": {
              "system": "https://fhir.nhs.uk/Id/ods-organization-code",
              "value": "699X0"
            },
            "type": "Organization"
          }
        ],
        "status": "final",
        "subject": {
          "identifier": {
            "system": "https://fhir.nhs.uk/Id/nhs-number",
            "type": {
              "coding": [
                {
                  "code": "NH",
                  "system": "http://terminology.hl7.org/CodeSystem/v2-0203"
                }
              ]
            },
            "value": "9737383192"
          },
          "reference": "urn:uuid:d1982d12-f0b5-4ddb-b758-a811f66b89d3"
        },
        "valueCodeableConcept": {
          "coding": [
            {
              "code": "LA9633-4",
              "display": "Present",
              "system": "http://loinc.org"
            }
          ]
        }
      }
    },
    {
      "fullUrl": "urn:uuid:ea9b0d2e-2e22-4dae-bf37-4001dd2493ad",
      "resource": {
        "resourceType": "Observation",
        "code": {
          "coding": [
            {
              "code": "81259-4",
              "display": "Probable associated phenotype",
              "system": "http://loinc.org"
            }
          ]
        },
        "identifier": [
          {
            "assigner": {
              "identifier": {
                "system": "https://fhir.nhs.uk/Id/ods-organization-code",
                "value": "699X0"
              }
            },
            "system": "https://fhir.nwgenomics.nhs.uk/iGene/ReportIdentifier",
            "type": {
              "coding": [
                {
                  "code": "FILL",
                  "system": "http://terminology.hl7.org/CodeSystem/v2-0203"
                }
              ]
            },
            "value": "Gen825750"
          }
        ],
        "performer": [
          {
            "identifier": {
              "system": "https://fhir.nhs.uk/Id/ods-organization-code",
              "value": "699X0"
            },
            "type": "Organization"
          }
        ],
        "status": "final",
        "subject": {
          "identifier": {
            "system": "https://fhir.nhs.uk/Id/nhs-number",
            "type": {
              "coding": [
                {
                  "code": "NH",
                  "system": "http://terminology.hl7.org/CodeSystem/v2-0203"
                }
              ]
            },
            "value": "9737383192"
          },
          "reference": "urn:uuid:d1982d12-f0b5-4ddb-b758-a811f66b89d3"
        },
        "valueCodeableConcept": {
          "coding": [
            {
              "code": "C0268151",
              "display": "Deficiency of UDPglucose-hexose-1-phosphateuridylyltransferase",
              "system": "MedGen-Dis"
            }
          ]
        }
      }
    },
    {
      "fullUrl": "urn:uuid:dff07bca-0267-45c3-82e8-11ad635b4c24",
      "resource": {
        "resourceType": "Observation",
        "code": {
          "coding": [
            {
              "code": "53034-5",
              "display": "Allelic state",
              "system": "http://loinc.org"
            }
          ]
        },
        "identifier": [
          {
            "assigner": {
              "identifier": {
                "system": "https://fhir.nhs.uk/Id/ods-organization-code",
                "value": "699X0"
              }
            },
            "system": "https://fhir.nwgenomics.nhs.uk/iGene/ReportIdentifier",
            "type": {
              "coding": [
                {
                  "code": "FILL",
                  "system": "http://terminology.hl7.org/CodeSystem/v2-0203"
                }
              ]
            },
            "value": "Gen825750"
          }
        ],
        "performer": [
          {
            "identifier": {
              "system": "https://fhir.nhs.uk/Id/ods-organization-code",
              "value": "699X0"
            },
            "type": "Organization"
          }
        ],
        "status": "final",
        "subject": {
          "identifier": {
            "system": "https://fhir.nhs.uk/Id/nhs-number",
            "type": {
              "coding": [
                {
                  "code": "NH",
                  "system": "http://terminology.hl7.org/CodeSystem/v2-0203"
                }
              ]
            },
            "value": "9737383192"
          },
          "reference": "urn:uuid:d1982d12-f0b5-4ddb-b758-a811f66b89d3"
        },
        "valueCodeableConcept": {
          "coding": [
            {
              "code": "LA6706-1",
              "display": "Heterozygous",
              "system": "http://loinc.org"
            }
          ]
        }
      }
    },
    {
      "fullUrl": "urn:uuid:5fc1c335-2def-472c-a8d7-b28cc124dafc",
      "resource": {
        "resourceType": "ServiceRequest",
        "authoredOn": "2016-08-03",
        "category": [
          {
            "coding": [
              {
                "code": "116148004",
                "system": "http://snomed.info/sct"
              }
            ]
          }
        ],
        "code": {
          "coding": [
            {
              "code": "42318-6",
              "display": "GALT gene targeted mutation analysis",
              "system": "http://loinc.org"
            }
          ]
        },
        "identifier": [
          {
            "assigner": {
              "identifier": {
                "system": "https://fhir.nhs.uk/Id/ods-organization-code",
                "value": "ROA"
              }
            },
            "system": "urn:oid:1.2.840.114350.1.13.861.1.7.2.798268",
            "type": {
              "coding": [
                {
                  "code": "PLAC",
                  "system": "http://terminology.hl7.org/CodeSystem/v2-0203"
                }
              ]
            },
            "value": "1601716017"
          }
        ],
        "intent": "order",
        "requester": {
          "display": "Manchester University NHS Foundation Trust",
          "identifier": {
            "system": "https://fhir.nhs.uk/Id/ods-organization-code",
            "value": "R0A"
          },
          "type": "Organization"
        },
        "status": "active",
        "subject": {
          "identifier": {
            "system": "https://fhir.nhs.uk/Id/nhs-number",
            "type": {
              "coding": [
                {
                  "code": "NH",
                  "system": "http://terminology.hl7.org/CodeSystem/v2-0203"
                }
              ]
            },
            "value": "9737383192"
          },
          "reference": "urn:uuid:d1982d12-f0b5-4ddb-b758-a811f66b89d3"
        }
      }
    },
    {
      "fullUrl": "urn:uuid:554143ad-081e-4cce-b616-1cc593c564dd",
      "resource": {
        "resourceType": "DiagnosticReport",
        "basedOn": [
          {
            "identifier": {
              "assigner": {
                "identifier": {
                  "system": "https://fhir.nhs.uk/Id/ods-organization-code",
                  "value": "ROA"
                }
              },
              "system": "urn:oid:1.2.840.114350.1.13.861.1.7.2.798268",
              "type": {
                "coding": [
                  {
                    "code": "PLAC",
                    "system": "http://terminology.hl7.org/CodeSystem/v2-0203"
                  }
                ]
              },
              "value": "1601716017"
            },
            "reference": "urn:uuid:5fc1c335-2def-472c-a8d7-b28cc124dafc",
            "type": "ServiceRequest"
          }
        ],
        "category": [
          {
            "coding": [
              {
                "code": "GE",
                "system": "http://terminology.hl7.org/CodeSystem/v2-0074"
              }
            ]
          }
        ],
        "code": {
          "coding": [
            {
              "code": "42318-6",
              "display": "GALT gene targeted mutation analysis",
              "system": "http://loinc.org"
            }
          ]
        },
        "effectiveDateTime": "2016-08-09T16:50:00+00:00",
        "extension": [
          {
            "extension": [
              {
                "url": "reference",
                "valueReference": {
                  "display": "Genetic report",
                  "reference": "urn:uuid:3ea9449a-f9d1-4e7a-b17f-20b6b317b05a",
                  "type": "DocumentReference"
                }
              },
              {
                "url": "type",
                "valueCodeableConcept": {
                  "coding": [
                    {
                      "code": "SCI",
                      "system": "http://hl7.org/fhir/diagnosticreport-relevant-information-types"
                    }
                  ]
                }
              }
            ],
            "url": "http://hl7.org/fhir/5.0/StructureDefinition/extension-DiagnosticReport.supportingInfo"
          }
        ],
        "identifier": [
          {
            "assigner": {
              "identifier": {
                "system": "https://fhir.nhs.uk/Id/ods-organization-code",
                "value": "699X0"
              }
            },
            "system": "https://fhir.nwgenomics.nhs.uk/iGene/ReportIdentifier",
            "type": {
              "coding": [
                {
                  "code": "FILL",
                  "system": "http://terminology.hl7.org/CodeSystem/v2-0203"
                }
              ]
            },
            "value": "Gen825750"
          }
        ],
        "performer": [
          {
            "display": "NHS North West Genomics",
            "identifier": {
              "system": "https://fhir.nhs.uk/Id/ods-organization-code",
              "value": "699X0"
            },
            "type": "Organization"
          }
        ],
        "presentedForm": [
          {
            "contentType": "application/pdf",
            "url": "urn:uuid:3cad98bc-d7df-4ce1-a403-09b2ccb188b9"
          }
        ],
        "result": [
          {
            "display": "Reason for study",
            "reference": "urn:uuid:9e1c599e-7dba-4e60-ae14-df5aa29d2662",
            "type": "Observation"
          },
          {
            "display": "Genetic disease(s) assessed",
            "reference": "urn:uuid:0c68523e-4da8-4b73-a49d-31c161572c3b",
            "type": "Observation"
          },
          {
            "display": "Transcript reference sequence [Identifier]",
            "reference": "urn:uuid:4629fc77-1938-4930-9720-2fd9cd039e7c",
            "type": "Observation"
          },
          {
            "display": "Gene studied [ID]",
            "reference": "urn:uuid:bea85be4-9ae1-4020-b4d7-6ab737162611",
            "type": "Observation"
          },
          {
            "display": "Gene mutations tested",
            "reference": "urn:uuid:3dba04f0-9746-44a7-b8a4-2c4a35415acf",
            "type": "Observation"
          },
          {
            "display": "Gene mutations tested",
            "reference": "urn:uuid:700501c6-8b5f-4209-aaf8-07b0461a19d2",
            "type": "Observation"
          },
          {
            "display": "Gene mutations tested",
            "reference": "urn:uuid:88689b03-e5ff-4ad3-8aae-70dc748c348c",
            "type": "Observation"
          },
          {
            "display": "Discrete variation analysis overall interpretation",
            "reference": "urn:uuid:ccd3e21b-b483-46e4-8eb9-61dc9f956388",
            "type": "Observation"
          },
          {
            "display": "Human reference sequence assembly",
            "reference": "urn:uuid:08919d44-6bd3-4475-8a4a-93d18bbf17df",
            "type": "Observation"
          },
          {
            "display": "dbSNP version",
            "reference": "urn:uuid:4a73f886-a055-4608-b27e-554c47c65414",
            "type": "Observation"
          },
          {
            "display": "Variant Category",
            "reference": "urn:uuid:c75c5795-813a-424e-a2ae-e6b579d9da63",
            "type": "Observation"
          },
          {
            "display": "Discrete genetic variant",
            "reference": "urn:uuid:e55d0314-6252-4552-bef0-2a8eed27aa10",
            "type": "Observation"
          },
          {
            "display": "Gene studied",
            "reference": "urn:uuid:3e0c3bb6-0c99-4ea7-a59f-6e8860a5af08",
            "type": "Observation"
          },
          {
            "display": "Transcript RefSeq ID",
            "reference": "urn:uuid:a8ffd36d-0fcf-4e6f-b83b-cc0bbf7eb315",
            "type": "Observation"
          },
          {
            "display": "Transcript DNA Change (cHGVS)",
            "reference": "urn:uuid:1f3f1b28-aea8-4b07-b84e-2b42a3cd37e8",
            "type": "Observation"
          },
          {
            "display": "Amino acid change p.HGVS",
            "reference": "urn:uuid:66f9b0e4-e761-43de-933a-b6aae389ca33",
            "type": "Observation"
          },
          {
            "display": "DNA change type",
            "reference": "urn:uuid:50d28cce-9822-460d-a66f-40ab10409e0b",
            "type": "Observation"
          },
          {
            "display": "Amino Acid change type",
            "reference": "urn:uuid:fc871bd3-f134-45aa-993a-ddc5c9d5e341",
            "type": "Observation"
          },
          {
            "display": "Genomic reference sequence",
            "reference": "urn:uuid:f0782bdc-a0f4-441f-87ed-cddc622f01e2",
            "type": "Observation"
          },
          {
            "display": "Genomic DNA change(gHGVS)",
            "reference": "urn:uuid:e7be7f0f-5dab-4231-a556-a35d8d029311",
            "type": "Observation"
          },
          {
            "display": "Genomic ref allele",
            "reference": "urn:uuid:3d845aa8-8eca-4243-8309-14012a9d539e",
            "type": "Observation"
          },
          {
            "display": "Genomic allele start-end",
            "reference": "urn:uuid:607fb2a0-b7b5-4380-8494-435e0cba6ae4",
            "type": "Observation"
          },
          {
            "display": "Genomic alt allele",
            "reference": "urn:uuid:37b54323-2ba3-4508-9c18-f065ed9f586b",
            "type": "Observation"
          },
          {
            "display": "dbSNP ID",
            "reference": "urn:uuid:d8a7389a-afc7-4d14-878d-9a4ef9dbec8f",
            "type": "Observation"
          },
          {
            "display": "Cytogenetic (chromosome) location",
            "reference": "urn:uuid:f40ad4fc-78bf-4554-8bdd-e0e8de8e0682",
            "type": "Observation"
          },
          {
            "display": "Genomic source class",
            "reference": "urn:uuid:d3dbed5d-476e-41fa-b18d-3945e21b0262",
            "type": "Observation"
          },
          {
            "display": "Variant analysis method type",
            "reference": "urn:uuid:934b77ed-de31-429b-b27a-1666ec70be05",
            "type": "Observation"
          },
          {
            "display": "Genetic variation clinical significance",
            "reference": "urn:uuid:96e334cc-db56-40d8-8f9d-78e96f8bbec5",
            "type": "Observation"
          },
          {
            "display": "Genetic variant assessment",
            "reference": "urn:uuid:7d43b7f1-64f0-4f51-8bf7-a6da730d6cd3",
            "type": "Observation"
          },
          {
            "display": "Probable associated phenotype",
            "reference": "urn:uuid:ea9b0d2e-2e22-4dae-bf37-4001dd2493ad",
            "type": "Observation"
          },
          {
            "display": "Allelic state",
            "reference": "urn:uuid:dff07bca-0267-45c3-82e8-11ad635b4c24",
            "type": "Observation"
          }
        ],
        "status": "unknown",
        "subject": {
          "identifier": {
            "system": "https://fhir.nhs.uk/Id/nhs-number",
            "type": {
              "coding": [
                {
                  "code": "NH",
                  "system": "http://terminology.hl7.org/CodeSystem/v2-0203"
                }
              ]
            },
            "value": "9737383192"
          },
          "reference": "urn:uuid:d1982d12-f0b5-4ddb-b758-a811f66b89d3"
        }
      }
    }
  ],
  "identifier": {
    "value": "ORIE-251014-9"
  },
  "timestamp": "2025-10-14T15:59:42+00:00",
  "type": "message"
}