{
  "resourceType": "Bundle",
  "entry": [
    {
      "fullUrl": "urn:uuid:ac732ef9-ef82-462d-9a75-a557898d20e8",
      "resource": {
        "resourceType": "MessageHeader",
        "destination": [
          {
            "endpoint": "https//fhir.mft.nhs.uk/Endpoint/EPIC",
            "receiver": {
              "identifier": {
                "system": "https://fhir.nhs.uk/Id/ods-organization-code",
                "value": "699X0"
              }
            }
          }
        ],
        "eventCoding": {
          "code": "R01",
          "system": "http://terminology.hl7.org/CodeSystem/v2-0003"
        },
        "focus": [
          {
            "reference": "urn:uuid:c555edd2-07b6-4e46-b614-76677aef1031"
          }
        ],
        "sender": {
          "identifier": {
            "system": "https://fhir.nhs.uk/Id/ods-organization-code",
            "value": "699X0"
          }
        },
        "source": {
          "endpoint": "https://fhir.nwgenomics.nhs.uk/Endpoint/IGENE",
          "software": "NW GLH"
        }
      }
    },
    {
      "fullUrl": "urn:uuid:a77a51b6-3f0a-42a3-8f02-c06c473e46ee",
      "resource": {
        "resourceType": "Patient",
        "birthDate": "1942-06-18",
        "gender": "unknown",
        "identifier": [
          {
            "system": "https://fhir.nhs.uk/Id/nhs-number",
            "type": {
              "coding": [
                {
                  "code": "NH",
                  "system": "http://terminology.hl7.org/CodeSystem/v2-0203"
                }
              ]
            },
            "value": "9737383206"
          }
        ],
        "name": [
          {
            "family": "LIVERPOOL",
            "given": [
              "NED"
            ]
          }
        ]
      }
    },
    {
      "fullUrl": "urn:uuid:4be3e876-9642-4894-bf51-98ccc9ae58dc",
      "resource": {
        "resourceType": "DocumentReference",
        "context": {
          "period": {
            "end": "2025-10-14T15:59:16+00:00",
            "start": "2025-10-14T15:59:16+00:00"
          },
          "related": [
            {
              "identifier": {
                "assigner": {
                  "identifier": {
                    "system": "https://fhir.nhs.uk/Id/ods-organization-code",
                    "value": "REP"
                  }
                },
                "type": {
                  "coding": [
                    {
                      "code": "PLAC",
                      "system": "http://terminology.hl7.org/CodeSystem/v2-0203"
                    }
                  ]
                },
                "value": "1000152870"
              },
              "reference": "urn:uuid:d4f87db5-221c-4a31-9295-deb9db508e10",
              "type": "ServiceRequest"
            },
            {
              "identifier": {
                "assigner": {
                  "identifier": {
                    "system": "https://fhir.nhs.uk/Id/ods-organization-code",
                    "value": "699X0"
                  }
                },
                "system": "https://fhir.nwgenomics.nhs.uk/iGene/ReportIdentifier",
                "type": {
                  "coding": [
                    {
                      "code": "FILL",
                      "system": "http://terminology.hl7.org/CodeSystem/v2-0203"
                    }
                  ]
                },
                "value": "T25-0208"
              },
              "reference": "urn:uuid:c555edd2-07b6-4e46-b614-76677aef1031",
              "type": "DiagnosticReport"
            }
          ]
        },
        "custodian": {
          "identifier": {
            "system": "https://fhir.nhs.uk/Id/ods-organization-code",
            "value": "699X0"
          },
          "type": "Organization"
        },
        "date": "2025-10-14T15:59:16+00:00",
        "identifier": [
          {
            "assigner": {
              "identifier": {
                "system": "https://fhir.nhs.uk/Id/ods-organization-code",
                "value": "699X0"
              }
            },
            "system": "https://fhir.nwgenomics.nhs.uk/iGene/ReportIdentifier",
            "type": {
              "coding": [
                {
                  "code": "FILL",
                  "system": "http://terminology.hl7.org/CodeSystem/v2-0203"
                }
              ]
            },
            "value": "T25-0208"
          }
        ],
        "status": "current",
        "subject": {
          "identifier": {
            "system": "https://fhir.nhs.uk/Id/nhs-number",
            "type": {
              "coding": [
                {
                  "code": "NH",
                  "system": "http://terminology.hl7.org/CodeSystem/v2-0203"
                }
              ]
            },
            "value": "9737383206"
          },
          "reference": "urn:uuid:a77a51b6-3f0a-42a3-8f02-c06c473e46ee"
        },
        "type": {
          "coding": [
            {
              "code": "1054161000000101",
              "display": "Genetic report",
              "system": "http://snomed.info/sct"
            }
          ]
        }
      }
    },
    {
      "fullUrl": "urn:uuid:9e4d913b-70f2-428c-98a5-7bdc8beb3fa2",
      "resource": {
        "resourceType": "Specimen",
        "identifier": [
          {
            "type": {
              "coding": [
                {
                  "code": "PLAC",
                  "system": "http://terminology.hl7.org/CodeSystem/v2-0203"
                }
              ]
            },
            "value": "T25-0208"
          }
        ],
        "receivedTime": "2025-10-06T00:00:00+00:00",
        "status": "unavailable",
        "subject": {
          "identifier": {
            "system": "https://fhir.nhs.uk/Id/nhs-number",
            "type": {
              "coding": [
                {
                  "code": "NH",
                  "system": "http://terminology.hl7.org/CodeSystem/v2-0203"
                }
              ]
            },
            "value": "9737383206"
          },
          "reference": "urn:uuid:a77a51b6-3f0a-42a3-8f02-c06c473e46ee"
        }
      }
    },
    {
      "fullUrl": "urn:uuid:d4f87db5-221c-4a31-9295-deb9db508e10",
      "resource": {
        "resourceType": "ServiceRequest",
        "category": [
          {
            "coding": [
              {
                "code": "116148004",
                "system": "http://snomed.info/sct"
              }
            ]
          }
        ],
        "code": {
          "coding": [
            {
              "code": "R125.1",
              "display": "Thoracic aortic aneurysm or dissection (WES or Medium Panel)",
              "system": "https://fhir.nhs.uk/CodeSystem/England-GenomicTestDirectory"
            }
          ]
        },
        "identifier": [
          {
            "assigner": {
              "identifier": {
                "system": "https://fhir.nhs.uk/Id/ods-organization-code",
                "value": "REP"
              }
            },
            "type": {
              "coding": [
                {
                  "code": "PLAC",
                  "system": "http://terminology.hl7.org/CodeSystem/v2-0203"
                }
              ]
            },
            "value": "1000152870"
          }
        ],
        "intent": "order",
        "reasonCode": [
          {
            "coding": [
              {
                "code": "R125",
                "system": "https://fhir.nwgenomics.nhs.uk/CodeSystem/GenomicClinicalIndication"
              }
            ]
          }
        ],
        "requester": {
          "display": "Liverpool Womens",
          "identifier": {
            "system": "https://fhir.nhs.uk/Id/ods-organization-code",
            "value": "REP"
          },
          "type": "Organization"
        },
        "specimen": [
          {
            "reference": "urn:uuid:9e4d913b-70f2-428c-98a5-7bdc8beb3fa2",
            "type": "Specimen"
          }
        ],
        "status": "completed",
        "subject": {
          "identifier": {
            "system": "https://fhir.nhs.uk/Id/nhs-number",
            "type": {
              "coding": [
                {
                  "code": "NH",
                  "system": "http://terminology.hl7.org/CodeSystem/v2-0203"
                }
              ]
            },
            "value": "9737383206"
          },
          "reference": "urn:uuid:a77a51b6-3f0a-42a3-8f02-c06c473e46ee"
        }
      }
    },
    {
      "fullUrl": "urn:uuid:c555edd2-07b6-4e46-b614-76677aef1031",
      "resource": {
        "resourceType": "DiagnosticReport",
        "basedOn": [
          {
            "identifier": {
              "assigner": {
                "identifier": {
                  "system": "https://fhir.nhs.uk/Id/ods-organization-code",
                  "value": "REP"
                }
              },
              "type": {
                "coding": [
                  {
                    "code": "PLAC",
                    "system": "http://terminology.hl7.org/CodeSystem/v2-0203"
                  }
                ]
              },
              "value": "1000152870"
            },
            "reference": "urn:uuid:d4f87db5-221c-4a31-9295-deb9db508e10",
            "type": "ServiceRequest"
          }
        ],
        "category": [
          {
            "coding": [
              {
                "code": "GE",
                "system": "http://terminology.hl7.org/CodeSystem/v2-0074"
              }
            ]
          }
        ],
        "code": {
          "coding": [
            {
              "code": "R125_Cardiology",
              "display": "PANEL: R125.1, R125.2 - Thoracic aortic aneurysm and dissection v1.2",
              "system": "https://fhir.nwgenomics.nhs.uk/CodeSystem/IGEAP"
            },
            {
              "code": "R125.1",
              "display": "Thoracic aortic aneurysm or dissection (WES or Medium Panel)",
              "system": "https://fhir.nhs.uk/CodeSystem/England-GenomicTestDirectory"
            }
          ]
        },
        "effectiveDateTime": "2025-10-14T15:59:16+00:00",
        "extension": [
          {
            "url": "http://hl7.org/fhir/StructureDefinition/workflow-supportingInfo",
            "valueReference": {
              "display": "Genetic report",
              "reference": "urn:uuid:4be3e876-9642-4894-bf51-98ccc9ae58dc",
              "type": "DocumentReference"
            }
          }
        ],
        "identifier": [
          {
            "assigner": {
              "identifier": {
                "system": "https://fhir.nhs.uk/Id/ods-organization-code",
                "value": "699X0"
              }
            },
            "system": "https://fhir.nwgenomics.nhs.uk/iGene/ReportIdentifier",
            "type": {
              "coding": [
                {
                  "code": "FILL",
                  "system": "http://terminology.hl7.org/CodeSystem/v2-0203"
                }
              ]
            },
            "value": "T25-0208"
          }
        ],
        "issued": "2025-10-14T15:59:16+00:00",
        "performer": [
          {
            "display": "NHS North West Genomics",
            "identifier": {
              "system": "https://fhir.nhs.uk/Id/ods-organization-code",
              "value": "699X0"
            },
            "type": "Organization"
          }
        ],
        "presentedForm": [
          {

          }
        ],
        "resultsInterpreter": [
          {
            "display": "Jonathan Edgerley"
          }
        ],
        "specimen": [
          {
            "reference": "urn:uuid:9e4d913b-70f2-428c-98a5-7bdc8beb3fa2",
            "type": "Specimen"
          }
        ],
        "status": "final",
        "subject": {
          "identifier": {
            "system": "https://fhir.nhs.uk/Id/nhs-number",
            "type": {
              "coding": [
                {
                  "code": "NH",
                  "system": "http://terminology.hl7.org/CodeSystem/v2-0203"
                }
              ]
            },
            "value": "9737383206"
          },
          "reference": "urn:uuid:a77a51b6-3f0a-42a3-8f02-c06c473e46ee"
        }
      }
    }
  ],
  "identifier": {
    "value": "ORIE-251014-9"
  },
  "timestamp": "2025-10-14T15:59:42+00:00",
  "type": "message"
}