{
  "resourceType": "Bundle",
  "entry": [
    {
      "fullUrl": "urn:uuid:204cc683-cf0b-4a36-a192-2b5ca5d3cc7f",
      "resource": {
        "resourceType": "MessageHeader",
        "destination": [
          {
            "endpoint": "https//fhir.mft.nhs.uk/Endpoint/EPIC",
            "receiver": {
              "identifier": {
                "system": "https://fhir.nhs.uk/Id/ods-organization-code",
                "value": "699X0"
              }
            }
          }
        ],
        "eventCoding": {
          "code": "R01",
          "system": "http://terminology.hl7.org/CodeSystem/v2-0003"
        },
        "focus": [
          {
            "reference": "urn:uuid:9ecb9cd3-cd6b-438f-969c-c03c4d2e2b8a"
          }
        ],
        "sender": {
          "identifier": {
            "system": "https://fhir.nhs.uk/Id/ods-organization-code",
            "value": "699X0"
          }
        },
        "source": {
          "endpoint": "https://fhir.nwgenomics.nhs.uk/Endpoint/IGENE",
          "software": "NW GLH"
        }
      }
    },
    {
      "fullUrl": "urn:uuid:0124c6a2-5ef2-4e6a-ad13-9e58fe97e92d",
      "resource": {
        "resourceType": "Patient",
        "address": [
          {
            "postalCode": "LS8 2HH"
          }
        ],
        "birthDate": "1978-01-17",
        "gender": "male",
        "identifier": [
          {
            "system": "https://fhir.nhs.uk/Id/nhs-number",
            "type": {
              "coding": [
                {
                  "code": "NH",
                  "system": "http://terminology.hl7.org/CodeSystem/v2-0203"
                }
              ]
            },
            "value": "9737383222"
          },
          {
            "assigner": {
              "identifier": {
                "system": "https://fhir.nhs.uk/Id/ods-organization-code",
                "value": "RR8"
              }
            },
            "type": {
              "coding": [
                {
                  "code": "MR",
                  "system": "http://terminology.hl7.org/CodeSystem/v2-0203"
                }
              ]
            },
            "value": "L765432"
          }
        ],
        "name": [
          {
            "family": "LEEDS",
            "given": [
              "ROB"
            ]
          }
        ]
      }
    },
    {
      "fullUrl": "urn:uuid:6fbef378-f245-4626-bb4b-7c43ac180810",
      "resource": {
        "resourceType": "DocumentReference",
        "context": {
          "period": {
            "end": "2025-10-14T15:59:16+00:00",
            "start": "2025-10-14T15:59:16+00:00"
          },
          "related": [
            {
              "identifier": {
                "assigner": {
                  "identifier": {
                    "system": "https://fhir.nhs.uk/Id/ods-organization-code",
                    "value": "RR8"
                  }
                },
                "type": {
                  "coding": [
                    {
                      "code": "PLAC",
                      "system": "http://terminology.hl7.org/CodeSystem/v2-0203"
                    }
                  ]
                },
                "value": "1000152872"
              },
              "reference": "urn:uuid:0999a999-b33e-4e9a-9d60-877efeaab1b1",
              "type": "ServiceRequest"
            },
            {
              "identifier": {
                "assigner": {
                  "identifier": {
                    "system": "https://fhir.nhs.uk/Id/ods-organization-code",
                    "value": "699X0"
                  }
                },
                "system": "https://fhir.nwgenomics.nhs.uk/iGene/ReportIdentifier",
                "type": {
                  "coding": [
                    {
                      "code": "FILL",
                      "system": "http://terminology.hl7.org/CodeSystem/v2-0203"
                    }
                  ]
                },
                "value": "T25-0209"
              },
              "reference": "urn:uuid:9ecb9cd3-cd6b-438f-969c-c03c4d2e2b8a",
              "type": "DiagnosticReport"
            }
          ],
          "sourcePatientInfo": {
            "identifier": {
              "assigner": {
                "identifier": {
                  "system": "https://fhir.nhs.uk/Id/ods-organization-code",
                  "value": "RR8"
                }
              },
              "type": {
                "coding": [
                  {
                    "code": "MR",
                    "system": "http://terminology.hl7.org/CodeSystem/v2-0203"
                  }
                ]
              },
              "value": "L765432"
            }
          }
        },
        "custodian": {
          "identifier": {
            "system": "https://fhir.nhs.uk/Id/ods-organization-code",
            "value": "699X0"
          },
          "type": "Organization"
        },
        "date": "2025-10-14T15:59:16+00:00",
        "identifier": [
          {
            "assigner": {
              "identifier": {
                "system": "https://fhir.nhs.uk/Id/ods-organization-code",
                "value": "699X0"
              }
            },
            "system": "https://fhir.nwgenomics.nhs.uk/iGene/ReportIdentifier",
            "type": {
              "coding": [
                {
                  "code": "FILL",
                  "system": "http://terminology.hl7.org/CodeSystem/v2-0203"
                }
              ]
            },
            "value": "T25-0209"
          }
        ],
        "status": "current",
        "subject": {
          "identifier": {
            "system": "https://fhir.nhs.uk/Id/nhs-number",
            "type": {
              "coding": [
                {
                  "code": "NH",
                  "system": "http://terminology.hl7.org/CodeSystem/v2-0203"
                }
              ]
            },
            "value": "9737383222"
          },
          "reference": "urn:uuid:0124c6a2-5ef2-4e6a-ad13-9e58fe97e92d"
        },
        "type": {
          "coding": [
            {
              "code": "1054161000000101",
              "display": "Genetic report",
              "system": "http://snomed.info/sct"
            }
          ]
        }
      }
    },
    {
      "fullUrl": "urn:uuid:7965bf07-c751-49b7-9ea0-e4da05bec53a",
      "resource": {
        "resourceType": "Specimen",
        "identifier": [
          {
            "type": {
              "coding": [
                {
                  "code": "PLAC",
                  "system": "http://terminology.hl7.org/CodeSystem/v2-0203"
                }
              ]
            },
            "value": "T25-0209"
          }
        ],
        "receivedTime": "2025-10-06T00:00:00+00:00",
        "status": "unavailable",
        "subject": {
          "identifier": {
            "system": "https://fhir.nhs.uk/Id/nhs-number",
            "type": {
              "coding": [
                {
                  "code": "NH",
                  "system": "http://terminology.hl7.org/CodeSystem/v2-0203"
                }
              ]
            },
            "value": "9737383222"
          },
          "reference": "urn:uuid:0124c6a2-5ef2-4e6a-ad13-9e58fe97e92d"
        }
      }
    },
    {
      "fullUrl": "urn:uuid:0999a999-b33e-4e9a-9d60-877efeaab1b1",
      "resource": {
        "resourceType": "ServiceRequest",
        "category": [
          {
            "coding": [
              {
                "code": "116148004",
                "system": "http://snomed.info/sct"
              }
            ]
          }
        ],
        "code": {
          "coding": [
            {
              "code": "R125.1",
              "display": "Thoracic aortic aneurysm or dissection (WES or Medium Panel)",
              "system": "https://fhir.nhs.uk/CodeSystem/England-GenomicTestDirectory"
            }
          ]
        },
        "identifier": [
          {
            "assigner": {
              "identifier": {
                "system": "https://fhir.nhs.uk/Id/ods-organization-code",
                "value": "RR8"
              }
            },
            "type": {
              "coding": [
                {
                  "code": "PLAC",
                  "system": "http://terminology.hl7.org/CodeSystem/v2-0203"
                }
              ]
            },
            "value": "1000152872"
          }
        ],
        "intent": "order",
        "reasonCode": [
          {
            "coding": [
              {
                "code": "R125",
                "system": "https://fhir.nwgenomics.nhs.uk/CodeSystem/GenomicClinicalIndication"
              }
            ]
          }
        ],
        "requester": {
          "display": "Leeds Teaching Trust",
          "identifier": {
            "system": "https://fhir.nhs.uk/Id/ods-organization-code",
            "value": "RR8"
          },
          "type": "Organization"
        },
        "specimen": [
          {
            "reference": "urn:uuid:7965bf07-c751-49b7-9ea0-e4da05bec53a",
            "type": "Specimen"
          }
        ],
        "status": "completed",
        "subject": {
          "identifier": {
            "system": "https://fhir.nhs.uk/Id/nhs-number",
            "type": {
              "coding": [
                {
                  "code": "NH",
                  "system": "http://terminology.hl7.org/CodeSystem/v2-0203"
                }
              ]
            },
            "value": "9737383222"
          },
          "reference": "urn:uuid:0124c6a2-5ef2-4e6a-ad13-9e58fe97e92d"
        }
      }
    },
    {
      "fullUrl": "urn:uuid:9ecb9cd3-cd6b-438f-969c-c03c4d2e2b8a",
      "resource": {
        "resourceType": "DiagnosticReport",
        "basedOn": [
          {
            "identifier": {
              "assigner": {
                "identifier": {
                  "system": "https://fhir.nhs.uk/Id/ods-organization-code",
                  "value": "RR8"
                }
              },
              "type": {
                "coding": [
                  {
                    "code": "PLAC",
                    "system": "http://terminology.hl7.org/CodeSystem/v2-0203"
                  }
                ]
              },
              "value": "1000152872"
            },
            "reference": "urn:uuid:0999a999-b33e-4e9a-9d60-877efeaab1b1",
            "type": "ServiceRequest"
          }
        ],
        "category": [
          {
            "coding": [
              {
                "code": "GE",
                "system": "http://terminology.hl7.org/CodeSystem/v2-0074"
              }
            ]
          }
        ],
        "code": {
          "coding": [
            {
              "code": "R125_Cardiology",
              "display": "PANEL: R125.1, R125.2 - Thoracic aortic aneurysm and dissection v1.2",
              "system": "https://fhir.nwgenomics.nhs.uk/CodeSystem/IGEAP"
            },
            {
              "code": "R125.1",
              "display": "Thoracic aortic aneurysm or dissection (WES or Medium Panel)",
              "system": "https://fhir.nhs.uk/CodeSystem/England-GenomicTestDirectory"
            }
          ]
        },
        "effectiveDateTime": "2025-10-14T15:59:16+00:00",
        "extension": [
          {
            "url": "http://hl7.org/fhir/StructureDefinition/workflow-supportingInfo",
            "valueReference": {
              "display": "Genetic report",
              "reference": "urn:uuid:6fbef378-f245-4626-bb4b-7c43ac180810",
              "type": "DocumentReference"
            }
          }
        ],
        "identifier": [
          {
            "assigner": {
              "identifier": {
                "system": "https://fhir.nhs.uk/Id/ods-organization-code",
                "value": "699X0"
              }
            },
            "system": "https://fhir.nwgenomics.nhs.uk/iGene/ReportIdentifier",
            "type": {
              "coding": [
                {
                  "code": "FILL",
                  "system": "http://terminology.hl7.org/CodeSystem/v2-0203"
                }
              ]
            },
            "value": "T25-0209"
          }
        ],
        "issued": "2025-10-14T15:59:16+00:00",
        "performer": [
          {
            "display": "NHS North West Genomics",
            "identifier": {
              "system": "https://fhir.nhs.uk/Id/ods-organization-code",
              "value": "699X0"
            },
            "type": "Organization"
          }
        ],
        "presentedForm": [
          {

          }
        ],
        "resultsInterpreter": [
          {
            "display": "Jonathan Edgerley"
          }
        ],
        "specimen": [
          {
            "reference": "urn:uuid:7965bf07-c751-49b7-9ea0-e4da05bec53a",
            "type": "Specimen"
          }
        ],
        "status": "final",
        "subject": {
          "identifier": {
            "system": "https://fhir.nhs.uk/Id/nhs-number",
            "type": {
              "coding": [
                {
                  "code": "NH",
                  "system": "http://terminology.hl7.org/CodeSystem/v2-0203"
                }
              ]
            },
            "value": "9737383222"
          },
          "reference": "urn:uuid:0124c6a2-5ef2-4e6a-ad13-9e58fe97e92d"
        }
      }
    }
  ],
  "identifier": {
    "value": "ORIE-251014-9"
  },
  "timestamp": "2025-10-14T15:59:42+00:00",
  "type": "message"
}