{
  "resourceType": "Bundle",
  "entry": [
    {
      "fullUrl": "urn:uuid:a69f4cd9-aed0-4921-a98a-e35ac1662798",
      "resource": {
        "resourceType": "MessageHeader",
        "destination": [
          {
            "endpoint": "https//fhir.mft.nhs.uk/Endpoint/HODS",
            "receiver": {
              "identifier": {
                "system": "https://fhir.nhs.uk/Id/ods-organization-code",
                "value": "HODS"
              }
            }
          }
        ],
        "eventCoding": {
          "code": "R01",
          "system": "http://terminology.hl7.org/CodeSystem/v2-0003"
        },
        "focus": [
          {
            "reference": "urn:uuid:9978a6ea-40fd-4c7e-bf40-fc1e8ca9a996"
          }
        ],
        "sender": {
          "identifier": {
            "system": "https://fhir.nhs.uk/Id/ods-organization-code",
            "value": "CPP"
          }
        },
        "source": {
          "endpoint": "https://fhir.nwgenomics.nhs.uk/Endpoint/SHIRE",
          "software": "NW GLH"
        }
      }
    },
    {
      "fullUrl": "urn:uuid:fc2f7261-a11d-4d96-b9d3-05b4f19b3aa1",
      "resource": {
        "resourceType": "Patient",
        "address": [
          {
            "postalCode": "BL1 1RU"
          }
        ],
        "birthDate": "1985-05-13",
        "gender": "male",
        "identifier": [
          {
            "system": "https://fhir.nhs.uk/Id/nhs-number",
            "type": {
              "coding": [
                {
                  "code": "NH",
                  "system": "http://terminology.hl7.org/CodeSystem/v2-0203"
                }
              ]
            },
            "value": "9737383273"
          },
          {
            "assigner": {
              "identifier": {
                "system": "https://fhir.nhs.uk/Id/ods-organization-code",
                "value": "RM3"
              }
            },
            "type": {
              "coding": [
                {
                  "code": "MR",
                  "system": "http://terminology.hl7.org/CodeSystem/v2-0203"
                }
              ]
            },
            "value": "1234567"
          }
        ],
        "name": [
          {
            "family": "BOLTON",
            "given": [
              "Ramsay"
            ]
          }
        ]
      }
    },
    {
      "fullUrl": "urn:uuid:189c5691-6884-40d5-967c-f31b5627fbb7",
      "resource": {
        "resourceType": "Binary",
        "contentType": "application/pdf",
        "data": ""
      }
    },
    {
      "fullUrl": "urn:uuid:8c4acdf0-6b7c-486b-be7b-eafe3c6a5f3a",
      "resource": {
        "resourceType": "DocumentReference",
        "content": [
          {
            "attachment": {
              "contentType": "application/pdf",
              "url": "urn:uuid:189c5691-6884-40d5-967c-f31b5627fbb7"
            }
          }
        ],
        "context": {
          "period": {
            "end": "2025-09-05",
            "start": "2025-09-05"
          },
          "related": [
            {
              "reference": "urn:uuid:9978a6ea-40fd-4c7e-bf40-fc1e8ca9a996",
              "type": "DiagnosticReport"
            }
          ],
          "sourcePatientInfo": {
            "identifier": {
              "assigner": {
                "identifier": {
                  "system": "https://fhir.nhs.uk/Id/ods-organization-code",
                  "value": "RM3"
                }
              },
              "type": {
                "coding": [
                  {
                    "code": "MR",
                    "system": "http://terminology.hl7.org/CodeSystem/v2-0203"
                  }
                ]
              },
              "value": "1234567"
            }
          }
        },
        "custodian": {
          "identifier": {
            "system": "https://fhir.nhs.uk/Id/ods-organization-code",
            "value": "699X0"
          },
          "type": "Organization"
        },
        "date": "2025-09-05",
        "status": "current",
        "subject": {
          "identifier": {
            "system": "https://fhir.nhs.uk/Id/nhs-number",
            "type": {
              "coding": [
                {
                  "code": "NH",
                  "system": "http://terminology.hl7.org/CodeSystem/v2-0203"
                }
              ]
            },
            "value": "9737383273"
          },
          "reference": "urn:uuid:fc2f7261-a11d-4d96-b9d3-05b4f19b3aa1"
        },
        "type": {
          "coding": [
            {
              "code": "1054161000000101",
              "display": "Genetic report",
              "system": "http://snomed.info/sct"
            }
          ]
        }
      }
    },
    {
      "fullUrl": "urn:uuid:9978a6ea-40fd-4c7e-bf40-fc1e8ca9a996",
      "resource": {
        "resourceType": "DiagnosticReport",
        "category": [
          {
            "coding": [
              {
                "code": "GE",
                "system": "http://terminology.hl7.org/CodeSystem/v2-0074"
              }
            ]
          }
        ],
        "code": {
          "text": "Unknown test code"
        },
        "effectiveDateTime": "2025-09-05",
        "performer": [
          {
            "extension": [
              {
                "url": "http://hl7.org/fhir/StructureDefinition/event-performerFunction",
                "valueCodeableConcept": {
                  "coding": [
                    {
                      "code": "SPRF",
                      "system": "http://terminology.hl7.org/CodeSystem/v3-ParticipationType"
                    }
                  ]
                }
              }
            ]
          },
          {
            "display": "NHS North West Genomics",
            "identifier": {
              "system": "https://fhir.nhs.uk/Id/ods-organization-code",
              "value": "699X0"
            },
            "type": "Organization"
          }
        ],
        "presentedForm": [
          {
            "contentType": "application/pdf",
            "url": "urn:uuid:189c5691-6884-40d5-967c-f31b5627fbb7"
          }
        ],
        "status": "final",
        "subject": {
          "identifier": {
            "system": "https://fhir.nhs.uk/Id/nhs-number",
            "type": {
              "coding": [
                {
                  "code": "NH",
                  "system": "http://terminology.hl7.org/CodeSystem/v2-0203"
                }
              ]
            },
            "value": "9737383273"
          },
          "reference": "urn:uuid:fc2f7261-a11d-4d96-b9d3-05b4f19b3aa1"
        }
      }
    }
  ],
  "identifier": {
    "value": "RPRD-250905-0"
  },
  "timestamp": "2025-09-05T10:51:48+00:00",
  "type": "message"
}