{
  "resourceType": "Bundle",
  "entry": [
    {
      "fullUrl": "urn:uuid:336e165f-a762-44cc-bf3b-fe0754a639f3",
      "resource": {
        "resourceType": "MessageHeader",
        "destination": [
          {
            "endpoint": "https//fhir.mft.nhs.uk/Endpoint/HODS",
            "receiver": {
              "identifier": {
                "system": "https://fhir.nhs.uk/Id/ods-organization-code",
                "value": "HODS"
              }
            }
          }
        ],
        "eventCoding": {
          "code": "R01",
          "system": "http://terminology.hl7.org/CodeSystem/v2-0003"
        },
        "focus": [
          {
            "reference": "urn:uuid:500d117c-4486-4b77-9125-a2c821d28304"
          }
        ],
        "sender": {
          "identifier": {
            "system": "https://fhir.nhs.uk/Id/ods-organization-code",
            "value": "CPP"
          }
        },
        "source": {
          "endpoint": "https://fhir.nwgenomics.nhs.uk/Endpoint/SHIRE",
          "software": "NW GLH"
        }
      }
    },
    {
      "fullUrl": "urn:uuid:fa4e55c4-23e6-42fc-8b0e-ef9573ce8ca7",
      "resource": {
        "resourceType": "Patient",
        "address": [
          {
            "postalCode": "BL1 1RU"
          }
        ],
        "birthDate": "1985-05-13",
        "gender": "male",
        "identifier": [
          {
            "system": "https://fhir.nhs.uk/Id/nhs-number",
            "type": {
              "coding": [
                {
                  "code": "NH",
                  "system": "http://terminology.hl7.org/CodeSystem/v2-0203"
                }
              ]
            },
            "value": "9737383273"
          },
          {
            "assigner": {
              "identifier": {
                "system": "https://fhir.nhs.uk/Id/ods-organization-code",
                "value": "RM3"
              }
            },
            "type": {
              "coding": [
                {
                  "code": "MR",
                  "system": "http://terminology.hl7.org/CodeSystem/v2-0203"
                }
              ]
            },
            "value": "1234567"
          }
        ],
        "name": [
          {
            "family": "BOLTON",
            "given": [
              "Ramsay"
            ]
          }
        ]
      }
    },
    {
      "fullUrl": "urn:uuid:ef32b522-345b-450f-96da-60f1459f6171",
      "resource": {
        "resourceType": "Binary",
        "contentType": "application/pdf",
        "data": ""
      }
    },
    {
      "fullUrl": "urn:uuid:a49c0e88-3cb4-4b6e-8ad4-67fb83ee714f",
      "resource": {
        "resourceType": "DocumentReference",
        "content": [
          {
            "attachment": {
              "contentType": "application/pdf",
              "url": "urn:uuid:ef32b522-345b-450f-96da-60f1459f6171"
            }
          }
        ],
        "context": {
          "period": {
            "end": "2025-09-05",
            "start": "2025-09-05"
          },
          "related": [
            {
              "reference": "urn:uuid:500d117c-4486-4b77-9125-a2c821d28304",
              "type": "DiagnosticReport"
            }
          ],
          "sourcePatientInfo": {
            "identifier": {
              "assigner": {
                "identifier": {
                  "system": "https://fhir.nhs.uk/Id/ods-organization-code",
                  "value": "RM3"
                }
              },
              "type": {
                "coding": [
                  {
                    "code": "MR",
                    "system": "http://terminology.hl7.org/CodeSystem/v2-0203"
                  }
                ]
              },
              "value": "1234567"
            }
          }
        },
        "custodian": {
          "identifier": {
            "system": "https://fhir.nhs.uk/Id/ods-organization-code",
            "value": "699X0"
          },
          "type": "Organization"
        },
        "date": "2025-09-05",
        "status": "current",
        "subject": {
          "identifier": {
            "system": "https://fhir.nhs.uk/Id/nhs-number",
            "type": {
              "coding": [
                {
                  "code": "NH",
                  "system": "http://terminology.hl7.org/CodeSystem/v2-0203"
                }
              ]
            },
            "value": "9737383273"
          },
          "reference": "urn:uuid:fa4e55c4-23e6-42fc-8b0e-ef9573ce8ca7"
        },
        "type": {
          "coding": [
            {
              "code": "1054161000000101",
              "display": "Genetic report",
              "system": "http://snomed.info/sct"
            }
          ]
        }
      }
    },
    {
      "fullUrl": "urn:uuid:500d117c-4486-4b77-9125-a2c821d28304",
      "resource": {
        "resourceType": "DiagnosticReport",
        "category": [
          {
            "coding": [
              {
                "code": "GE",
                "system": "http://terminology.hl7.org/CodeSystem/v2-0074"
              }
            ]
          }
        ],
        "code": {
          "text": "Unknown test code"
        },
        "effectiveDateTime": "2025-09-05",
        "performer": [
          {
            "extension": [
              {
                "url": "http://hl7.org/fhir/StructureDefinition/event-performerFunction",
                "valueCodeableConcept": {
                  "coding": [
                    {
                      "code": "SPRF",
                      "system": "http://terminology.hl7.org/CodeSystem/v3-ParticipationType"
                    }
                  ]
                }
              }
            ]
          },
          {
            "display": "NHS North West Genomics",
            "identifier": {
              "system": "https://fhir.nhs.uk/Id/ods-organization-code",
              "value": "699X0"
            },
            "type": "Organization"
          }
        ],
        "presentedForm": [
          {
            "contentType": "application/pdf",
            "url": "urn:uuid:ef32b522-345b-450f-96da-60f1459f6171"
          }
        ],
        "status": "final",
        "subject": {
          "identifier": {
            "system": "https://fhir.nhs.uk/Id/nhs-number",
            "type": {
              "coding": [
                {
                  "code": "NH",
                  "system": "http://terminology.hl7.org/CodeSystem/v2-0203"
                }
              ]
            },
            "value": "9737383273"
          },
          "reference": "urn:uuid:fa4e55c4-23e6-42fc-8b0e-ef9573ce8ca7"
        }
      }
    }
  ],
  "identifier": {
    "value": "RPRD-250905-0"
  },
  "timestamp": "2025-09-05T10:51:48+00:00",
  "type": "message"
}