{
  "resourceType": "Bundle",
  "entry": [
    {
      "fullUrl": "urn:uuid:6dc1be35-c92a-4bf6-8e6f-c36ce950f178",
      "resource": {
        "resourceType": "MessageHeader",
        "destination": [
          {
            "endpoint": "https//fhir.mft.nhs.uk/Endpoint/HODS",
            "receiver": {
              "identifier": {
                "system": "https://fhir.nhs.uk/Id/ods-organization-code",
                "value": "HODS"
              }
            }
          }
        ],
        "eventCoding": {
          "code": "R01",
          "system": "http://terminology.hl7.org/CodeSystem/v2-0003"
        },
        "focus": [
          {
            "reference": "urn:uuid:276fb10a-976e-44dc-b73e-27df705fd66b"
          }
        ],
        "sender": {
          "identifier": {
            "system": "https://fhir.nhs.uk/Id/ods-organization-code",
            "value": "CPP"
          }
        },
        "source": {
          "endpoint": "https://fhir.nwgenomics.nhs.uk/Endpoint/SHIRE",
          "software": "NW GLH"
        }
      }
    },
    {
      "fullUrl": "urn:uuid:ebfc825c-5ab3-4d46-a492-62e2cbeaa62b",
      "resource": {
        "resourceType": "Patient",
        "address": [
          {
            "postalCode": "BL1 1RU"
          }
        ],
        "birthDate": "1985-05-13",
        "gender": "male",
        "identifier": [
          {
            "system": "https://fhir.nhs.uk/Id/nhs-number",
            "type": {
              "coding": [
                {
                  "code": "NH",
                  "system": "http://terminology.hl7.org/CodeSystem/v2-0203"
                }
              ]
            },
            "value": "9737383273"
          },
          {
            "assigner": {
              "identifier": {
                "system": "https://fhir.nhs.uk/Id/ods-organization-code",
                "value": "RM3"
              }
            },
            "type": {
              "coding": [
                {
                  "code": "MR",
                  "system": "http://terminology.hl7.org/CodeSystem/v2-0203"
                }
              ]
            },
            "value": "1234567"
          }
        ],
        "name": [
          {
            "family": "BOLTON",
            "given": [
              "Ramsay"
            ]
          }
        ]
      }
    },
    {
      "fullUrl": "urn:uuid:2c6498ac-c644-48b4-9b2e-751e5899a5b6",
      "resource": {
        "resourceType": "Binary",
        "contentType": "application/pdf",
        "data": ""
      }
    },
    {
      "fullUrl": "urn:uuid:12fc8d28-c405-4a9f-828e-bc3a4b8356aa",
      "resource": {
        "resourceType": "DocumentReference",
        "content": [
          {
            "attachment": {
              "contentType": "application/pdf",
              "url": "urn:uuid:2c6498ac-c644-48b4-9b2e-751e5899a5b6"
            }
          }
        ],
        "context": {
          "period": {
            "end": "2025-09-05",
            "start": "2025-09-05"
          },
          "related": [
            {
              "reference": "urn:uuid:276fb10a-976e-44dc-b73e-27df705fd66b",
              "type": "DiagnosticReport"
            }
          ],
          "sourcePatientInfo": {
            "identifier": {
              "assigner": {
                "identifier": {
                  "system": "https://fhir.nhs.uk/Id/ods-organization-code",
                  "value": "RM3"
                }
              },
              "type": {
                "coding": [
                  {
                    "code": "MR",
                    "system": "http://terminology.hl7.org/CodeSystem/v2-0203"
                  }
                ]
              },
              "value": "1234567"
            }
          }
        },
        "custodian": {
          "identifier": {
            "system": "https://fhir.nhs.uk/Id/ods-organization-code",
            "value": "699X0"
          },
          "type": "Organization"
        },
        "date": "2025-09-05",
        "status": "current",
        "subject": {
          "identifier": {
            "system": "https://fhir.nhs.uk/Id/nhs-number",
            "type": {
              "coding": [
                {
                  "code": "NH",
                  "system": "http://terminology.hl7.org/CodeSystem/v2-0203"
                }
              ]
            },
            "value": "9737383273"
          },
          "reference": "urn:uuid:ebfc825c-5ab3-4d46-a492-62e2cbeaa62b"
        },
        "type": {
          "coding": [
            {
              "code": "1054161000000101",
              "display": "Genetic report",
              "system": "http://snomed.info/sct"
            }
          ]
        }
      }
    },
    {
      "fullUrl": "urn:uuid:276fb10a-976e-44dc-b73e-27df705fd66b",
      "resource": {
        "resourceType": "DiagnosticReport",
        "category": [
          {
            "coding": [
              {
                "code": "GE",
                "system": "http://terminology.hl7.org/CodeSystem/v2-0074"
              }
            ]
          }
        ],
        "code": {
          "text": "Unknown test code"
        },
        "effectiveDateTime": "2025-09-05",
        "extension": [
          {
            "extension": [
              {
                "url": "reference",
                "valueReference": {
                  "display": "Genetic report",
                  "reference": "urn:uuid:12fc8d28-c405-4a9f-828e-bc3a4b8356aa",
                  "type": "DocumentReference"
                }
              },
              {
                "url": "type",
                "valueCodeableConcept": {
                  "coding": [
                    {
                      "code": "SCI",
                      "system": "http://hl7.org/fhir/diagnosticreport-relevant-information-types"
                    }
                  ]
                }
              }
            ],
            "url": "http://hl7.org/fhir/5.0/StructureDefinition/extension-DiagnosticReport.supportingInfo"
          }
        ],
        "performer": [
          {
            "extension": [
              {
                "url": "http://hl7.org/fhir/StructureDefinition/event-performerFunction",
                "valueCodeableConcept": {
                  "coding": [
                    {
                      "code": "SPRF",
                      "system": "http://terminology.hl7.org/CodeSystem/v3-ParticipationType"
                    }
                  ]
                }
              }
            ]
          },
          {
            "display": "NHS North West Genomics",
            "identifier": {
              "system": "https://fhir.nhs.uk/Id/ods-organization-code",
              "value": "699X0"
            },
            "type": "Organization"
          }
        ],
        "presentedForm": [
          {
            "contentType": "application/pdf",
            "url": "urn:uuid:2c6498ac-c644-48b4-9b2e-751e5899a5b6"
          }
        ],
        "status": "final",
        "subject": {
          "identifier": {
            "system": "https://fhir.nhs.uk/Id/nhs-number",
            "type": {
              "coding": [
                {
                  "code": "NH",
                  "system": "http://terminology.hl7.org/CodeSystem/v2-0203"
                }
              ]
            },
            "value": "9737383273"
          },
          "reference": "urn:uuid:ebfc825c-5ab3-4d46-a492-62e2cbeaa62b"
        }
      }
    }
  ],
  "identifier": {
    "value": "RPRD-250905-0"
  },
  "timestamp": "2025-09-05T10:51:48+00:00",
  "type": "message"
}