{
  "resourceType": "Bundle",
  "entry": [
    {
      "fullUrl": "urn:uuid:981458be-70fd-4da8-b886-4eff47de7c55",
      "resource": {
        "resourceType": "MessageHeader",
        "destination": [
          {
            "endpoint": "https//fhir.mft.nhs.uk/Endpoint/cymru.nhs.uk",
            "receiver": {
              "identifier": {
                "system": "https://fhir.nhs.uk/Id/ods-organization-code",
                "value": "NHSWales"
              }
            }
          }
        ],
        "eventCoding": {
          "code": "R01",
          "system": "http://terminology.hl7.org/CodeSystem/v2-0003"
        },
        "focus": [
          {
            "reference": "urn:uuid:4a5a6dac-f7fc-444f-81fd-e3b32cdfe403"
          },
          {
            "reference": "urn:uuid:8a93806f-9241-4215-9a3c-4ac764c4be9e"
          },
          {
            "reference": "urn:uuid:f0a5a7f5-f7d4-4afd-a2a2-8f0fe49c0893"
          },
          {
            "reference": "urn:uuid:3716862e-e2da-495b-8049-66f4837fcc21"
          },
          {
            "reference": "urn:uuid:a6bbe990-a664-42c9-ac85-b9da87bd57ab"
          }
        ],
        "sender": {
          "identifier": {
            "system": "https://fhir.nhs.uk/Id/ods-organization-code",
            "value": "CAV"
          }
        },
        "source": {
          "endpoint": "https://fhir.nwgenomics.nhs.uk/Endpoint/ACMELab",
          "software": "NW GLH"
        }
      }
    },
    {
      "fullUrl": "urn:uuid:c29c4523-f8c4-4d4b-86cf-d46e7efc390a",
      "resource": {
        "resourceType": "Patient",
        "address": [
          {
            "city": "Baglan",
            "district": "Neath port talbot",
            "line": [
              "A B M U Health Board",
              "One Talbot Gateway"
            ],
            "postalCode": "SA12 7BR"
          }
        ],
        "birthDate": "1999-10-13",
        "gender": "male",
        "identifier": [
          {
            "assigner": {
              "identifier": {
                "system": "https://fhir.nhs.uk/Id/ods-organization-code",
                "value": "7A4"
              }
            },
            "type": {
              "coding": [
                {
                  "code": "PI",
                  "system": "http://terminology.hl7.org/CodeSystem/v2-0203"
                }
              ]
            },
            "value": "403281375"
          },
          {
            "assigner": {
              "identifier": {
                "system": "https://fhir.nhs.uk/Id/ods-organization-code",
                "value": "X24"
              }
            },
            "system": "https://fhir.nhs.uk/Id/nhs-number",
            "type": {
              "coding": [
                {
                  "code": "NH",
                  "system": "http://terminology.hl7.org/CodeSystem/v2-0203"
                }
              ]
            },
            "value": "9737383257"
          }
        ],
        "name": [
          {
            "family": "WREXHAM",
            "given": [
              "Myrcella"
            ],
            "prefix": [
              "Mr"
            ]
          }
        ]
      }
    },
    {
      "fullUrl": "urn:uuid:b39dadd3-73a2-4fac-a517-1329d436ef11",
      "resource": {
        "resourceType": "Observation",
        "code": {
          "coding": [
            {
              "code": "B3553",
              "display": "HbA1c (IFCC traceable)"
            }
          ]
        },
        "effectiveDateTime": "2018-03-09T15:00:00+00:00",
        "identifier": [
          {
            "type": {
              "coding": [
                {
                  "code": "FILL",
                  "system": "http://terminology.hl7.org/CodeSystem/v2-0203"
                }
              ]
            },
            "value": "914694928301"
          }
        ],
        "performer": [
          {
            "identifier": {
              "system": "https://fhir.nhs.uk/Id/ods-organization-code",
              "value": "699X0"
            },
            "type": "Organization"
          }
        ],
        "referenceRange": [
          {
            "text": "<48"
          }
        ],
        "status": "final",
        "subject": {
          "identifier": {
            "assigner": {
              "identifier": {
                "system": "https://fhir.nhs.uk/Id/ods-organization-code",
                "value": "X24"
              }
            },
            "system": "https://fhir.nhs.uk/Id/nhs-number",
            "type": {
              "coding": [
                {
                  "code": "NH",
                  "system": "http://terminology.hl7.org/CodeSystem/v2-0203"
                }
              ]
            },
            "value": "9737383257"
          },
          "reference": "urn:uuid:c29c4523-f8c4-4d4b-86cf-d46e7efc390a"
        },
        "valueQuantity": {
          "system": "http://unitsofmeasure.org",
          "unit": "mmol/mol",
          "value": 49
        }
      }
    },
    {
      "fullUrl": "urn:uuid:16e1a7b0-57d0-4dda-a3f2-cb8f3d97d963",
      "resource": {
        "resourceType": "Specimen",
        "identifier": [
          {
            "type": {
              "coding": [
                {
                  "code": "PLAC",
                  "system": "http://terminology.hl7.org/CodeSystem/v2-0203"
                }
              ]
            },
            "value": "914694928301"
          }
        ],
        "receivedTime": "2018-03-09T15:00:00+00:00",
        "status": "unavailable",
        "subject": {
          "identifier": {
            "assigner": {
              "identifier": {
                "system": "https://fhir.nhs.uk/Id/ods-organization-code",
                "value": "X24"
              }
            },
            "system": "https://fhir.nhs.uk/Id/nhs-number",
            "type": {
              "coding": [
                {
                  "code": "NH",
                  "system": "http://terminology.hl7.org/CodeSystem/v2-0203"
                }
              ]
            },
            "value": "9737383257"
          },
          "reference": "urn:uuid:c29c4523-f8c4-4d4b-86cf-d46e7efc390a"
        }
      }
    },
    {
      "fullUrl": "urn:uuid:f08374d6-eac5-43cb-b1fa-3409e3ec1b6d",
      "resource": {
        "resourceType": "ServiceRequest",
        "category": [
          {
            "coding": [
              {
                "code": "116148004",
                "system": "http://snomed.info/sct"
              }
            ]
          }
        ],
        "code": {
          "coding": [
            {
              "code": "B3051",
              "display": "HbA1c (IFCC traceable)"
            }
          ]
        },
        "identifier": [
          {
            "type": {
              "coding": [
                {
                  "code": "FILL",
                  "system": "http://terminology.hl7.org/CodeSystem/v2-0203"
                }
              ]
            },
            "value": "914694928301"
          }
        ],
        "intent": "order",
        "specimen": [
          {
            "reference": "urn:uuid:16e1a7b0-57d0-4dda-a3f2-cb8f3d97d963",
            "type": "Specimen"
          }
        ],
        "status": "completed",
        "subject": {
          "identifier": {
            "assigner": {
              "identifier": {
                "system": "https://fhir.nhs.uk/Id/ods-organization-code",
                "value": "X24"
              }
            },
            "system": "https://fhir.nhs.uk/Id/nhs-number",
            "type": {
              "coding": [
                {
                  "code": "NH",
                  "system": "http://terminology.hl7.org/CodeSystem/v2-0203"
                }
              ]
            },
            "value": "9737383257"
          },
          "reference": "urn:uuid:c29c4523-f8c4-4d4b-86cf-d46e7efc390a"
        }
      }
    },
    {
      "fullUrl": "urn:uuid:4a5a6dac-f7fc-444f-81fd-e3b32cdfe403",
      "resource": {
        "resourceType": "DiagnosticReport",
        "basedOn": [
          {
            "identifier": {
              "type": {
                "coding": [
                  {
                    "code": "FILL",
                    "system": "http://terminology.hl7.org/CodeSystem/v2-0203"
                  }
                ]
              },
              "value": "914694928301"
            },
            "reference": "urn:uuid:f08374d6-eac5-43cb-b1fa-3409e3ec1b6d",
            "type": "ServiceRequest"
          }
        ],
        "category": [
          {
            "coding": [
              {
                "code": "GE",
                "system": "http://terminology.hl7.org/CodeSystem/v2-0074"
              }
            ]
          }
        ],
        "code": {
          "coding": [
            {
              "code": "B3051",
              "display": "HbA1c (IFCC traceable)"
            }
          ]
        },
        "effectiveDateTime": "2018-03-09T15:00:00+00:00",
        "identifier": [
          {
            "type": {
              "coding": [
                {
                  "code": "FILL",
                  "system": "http://terminology.hl7.org/CodeSystem/v2-0203"
                }
              ]
            },
            "value": "914694928301"
          }
        ],
        "issued": "2018-03-09T15:00:00+00:00",
        "performer": [
          {
            "display": "NHS North West Genomics",
            "identifier": {
              "system": "https://fhir.nhs.uk/Id/ods-organization-code",
              "value": "699X0"
            },
            "type": "Organization"
          }
        ],
        "result": [
          {
            "display": "HbA1c (IFCC traceable)",
            "reference": "urn:uuid:b39dadd3-73a2-4fac-a517-1329d436ef11",
            "type": "Observation"
          }
        ],
        "specimen": [
          {
            "reference": "urn:uuid:16e1a7b0-57d0-4dda-a3f2-cb8f3d97d963",
            "type": "Specimen"
          }
        ],
        "status": "final",
        "subject": {
          "identifier": {
            "assigner": {
              "identifier": {
                "system": "https://fhir.nhs.uk/Id/ods-organization-code",
                "value": "X24"
              }
            },
            "system": "https://fhir.nhs.uk/Id/nhs-number",
            "type": {
              "coding": [
                {
                  "code": "NH",
                  "system": "http://terminology.hl7.org/CodeSystem/v2-0203"
                }
              ]
            },
            "value": "9737383257"
          },
          "reference": "urn:uuid:c29c4523-f8c4-4d4b-86cf-d46e7efc390a"
        }
      }
    },
    {
      "fullUrl": "urn:uuid:cff2cfd2-bbfc-4923-bb33-be7cb7034cdb",
      "resource": {
        "resourceType": "Observation",
        "code": {
          "coding": [
            {
              "code": "B0300",
              "display": "White blood cell (WBC) count"
            }
          ]
        },
        "effectiveDateTime": "2018-03-09T15:00:00+00:00",
        "identifier": [
          {
            "type": {
              "coding": [
                {
                  "code": "FILL",
                  "system": "http://terminology.hl7.org/CodeSystem/v2-0203"
                }
              ]
            },
            "value": "914694928301"
          }
        ],
        "performer": [
          {
            "identifier": {
              "system": "https://fhir.nhs.uk/Id/ods-organization-code",
              "value": "699X0"
            },
            "type": "Organization"
          }
        ],
        "referenceRange": [
          {
            "text": "4.0-11.0"
          }
        ],
        "status": "final",
        "subject": {
          "identifier": {
            "assigner": {
              "identifier": {
                "system": "https://fhir.nhs.uk/Id/ods-organization-code",
                "value": "X24"
              }
            },
            "system": "https://fhir.nhs.uk/Id/nhs-number",
            "type": {
              "coding": [
                {
                  "code": "NH",
                  "system": "http://terminology.hl7.org/CodeSystem/v2-0203"
                }
              ]
            },
            "value": "9737383257"
          },
          "reference": "urn:uuid:c29c4523-f8c4-4d4b-86cf-d46e7efc390a"
        },
        "valueQuantity": {
          "system": "http://unitsofmeasure.org",
          "unit": "x10\\S\\9/L",
          "value": 3.5
        }
      }
    },
    {
      "fullUrl": "urn:uuid:3af1ad89-76bf-46ec-a459-837071b06ce7",
      "resource": {
        "resourceType": "Observation",
        "code": {
          "coding": [
            {
              "code": "B0307",
              "display": "Haemoglobin (Hb)"
            }
          ]
        },
        "effectiveDateTime": "2018-03-09T15:00:00+00:00",
        "identifier": [
          {
            "type": {
              "coding": [
                {
                  "code": "FILL",
                  "system": "http://terminology.hl7.org/CodeSystem/v2-0203"
                }
              ]
            },
            "value": "914694928301"
          }
        ],
        "performer": [
          {
            "identifier": {
              "system": "https://fhir.nhs.uk/Id/ods-organization-code",
              "value": "699X0"
            },
            "type": "Organization"
          }
        ],
        "referenceRange": [
          {
            "text": "130-180"
          }
        ],
        "status": "final",
        "subject": {
          "identifier": {
            "assigner": {
              "identifier": {
                "system": "https://fhir.nhs.uk/Id/ods-organization-code",
                "value": "X24"
              }
            },
            "system": "https://fhir.nhs.uk/Id/nhs-number",
            "type": {
              "coding": [
                {
                  "code": "NH",
                  "system": "http://terminology.hl7.org/CodeSystem/v2-0203"
                }
              ]
            },
            "value": "9737383257"
          },
          "reference": "urn:uuid:c29c4523-f8c4-4d4b-86cf-d46e7efc390a"
        },
        "valueQuantity": {
          "comparator": "<",
          "system": "http://unitsofmeasure.org",
          "unit": "g/L",
          "value": 149
        }
      }
    },
    {
      "fullUrl": "urn:uuid:38d8d2b1-161c-4497-8f46-5f3f1e948644",
      "resource": {
        "resourceType": "Observation",
        "code": {
          "coding": [
            {
              "code": "B0314",
              "display": "Platelet (PLT) count"
            }
          ]
        },
        "effectiveDateTime": "2018-03-09T15:00:00+00:00",
        "identifier": [
          {
            "type": {
              "coding": [
                {
                  "code": "FILL",
                  "system": "http://terminology.hl7.org/CodeSystem/v2-0203"
                }
              ]
            },
            "value": "914694928301"
          }
        ],
        "performer": [
          {
            "identifier": {
              "system": "https://fhir.nhs.uk/Id/ods-organization-code",
              "value": "699X0"
            },
            "type": "Organization"
          }
        ],
        "referenceRange": [
          {
            "text": "150-400"
          }
        ],
        "status": "final",
        "subject": {
          "identifier": {
            "assigner": {
              "identifier": {
                "system": "https://fhir.nhs.uk/Id/ods-organization-code",
                "value": "X24"
              }
            },
            "system": "https://fhir.nhs.uk/Id/nhs-number",
            "type": {
              "coding": [
                {
                  "code": "NH",
                  "system": "http://terminology.hl7.org/CodeSystem/v2-0203"
                }
              ]
            },
            "value": "9737383257"
          },
          "reference": "urn:uuid:c29c4523-f8c4-4d4b-86cf-d46e7efc390a"
        },
        "valueQuantity": {
          "system": "http://unitsofmeasure.org",
          "unit": "x10\\S\\9/L",
          "value": 500
        }
      }
    },
    {
      "fullUrl": "urn:uuid:58698c4d-cbe0-40d4-bf89-2d3f8f40cf67",
      "resource": {
        "resourceType": "Observation",
        "code": {
          "coding": [
            {
              "code": "B0306",
              "display": "Red blood cell (RBC) count"
            }
          ]
        },
        "effectiveDateTime": "2018-03-09T15:00:00+00:00",
        "identifier": [
          {
            "type": {
              "coding": [
                {
                  "code": "FILL",
                  "system": "http://terminology.hl7.org/CodeSystem/v2-0203"
                }
              ]
            },
            "value": "914694928301"
          }
        ],
        "performer": [
          {
            "identifier": {
              "system": "https://fhir.nhs.uk/Id/ods-organization-code",
              "value": "699X0"
            },
            "type": "Organization"
          }
        ],
        "referenceRange": [
          {
            "text": "4.50-6.00"
          }
        ],
        "status": "final",
        "subject": {
          "identifier": {
            "assigner": {
              "identifier": {
                "system": "https://fhir.nhs.uk/Id/ods-organization-code",
                "value": "X24"
              }
            },
            "system": "https://fhir.nhs.uk/Id/nhs-number",
            "type": {
              "coding": [
                {
                  "code": "NH",
                  "system": "http://terminology.hl7.org/CodeSystem/v2-0203"
                }
              ]
            },
            "value": "9737383257"
          },
          "reference": "urn:uuid:c29c4523-f8c4-4d4b-86cf-d46e7efc390a"
        },
        "valueQuantity": {
          "system": "http://unitsofmeasure.org",
          "unit": "x10\\S\\12/L",
          "value": 6.00
        }
      }
    },
    {
      "fullUrl": "urn:uuid:6a9984ca-bf35-4646-be8b-6533a08894b3",
      "resource": {
        "resourceType": "Observation",
        "code": {
          "coding": [
            {
              "code": "B0309",
              "display": "Mean cell volume (MCV)"
            }
          ]
        },
        "effectiveDateTime": "2018-03-09T15:00:00+00:00",
        "identifier": [
          {
            "type": {
              "coding": [
                {
                  "code": "FILL",
                  "system": "http://terminology.hl7.org/CodeSystem/v2-0203"
                }
              ]
            },
            "value": "914694928301"
          }
        ],
        "performer": [
          {
            "identifier": {
              "system": "https://fhir.nhs.uk/Id/ods-organization-code",
              "value": "699X0"
            },
            "type": "Organization"
          }
        ],
        "referenceRange": [
          {
            "text": "80-100"
          }
        ],
        "status": "final",
        "subject": {
          "identifier": {
            "assigner": {
              "identifier": {
                "system": "https://fhir.nhs.uk/Id/ods-organization-code",
                "value": "X24"
              }
            },
            "system": "https://fhir.nhs.uk/Id/nhs-number",
            "type": {
              "coding": [
                {
                  "code": "NH",
                  "system": "http://terminology.hl7.org/CodeSystem/v2-0203"
                }
              ]
            },
            "value": "9737383257"
          },
          "reference": "urn:uuid:c29c4523-f8c4-4d4b-86cf-d46e7efc390a"
        },
        "valueCodeableConcept": {
          "coding": [
            {
              "code": "NA",
              "display": "Not assayed",
              "system": "ACME"
            }
          ]
        }
      }
    },
    {
      "fullUrl": "urn:uuid:3806d799-d27e-4d5b-a118-f354f9896f8d",
      "resource": {
        "resourceType": "Specimen",
        "collection": {
          "collectedDateTime": "2018-03-09T14:00:00+00:00"
        },
        "identifier": [
          {
            "type": {
              "coding": [
                {
                  "code": "FILL",
                  "system": "http://terminology.hl7.org/CodeSystem/v2-0203"
                }
              ]
            },
            "value": "9146949283"
          }
        ],
        "receivedTime": "2018-03-09T15:00:00+00:00",
        "status": "unavailable",
        "subject": {
          "identifier": {
            "assigner": {
              "identifier": {
                "system": "https://fhir.nhs.uk/Id/ods-organization-code",
                "value": "X24"
              }
            },
            "system": "https://fhir.nhs.uk/Id/nhs-number",
            "type": {
              "coding": [
                {
                  "code": "NH",
                  "system": "http://terminology.hl7.org/CodeSystem/v2-0203"
                }
              ]
            },
            "value": "9737383257"
          },
          "reference": "urn:uuid:c29c4523-f8c4-4d4b-86cf-d46e7efc390a"
        },
        "type": {
          "coding": [
            {
              "code": "BLOO",
              "display": "Blood",
              "system": "ACME"
            }
          ]
        }
      }
    },
    {
      "fullUrl": "urn:uuid:8a93806f-9241-4215-9a3c-4ac764c4be9e",
      "resource": {
        "resourceType": "DiagnosticReport",
        "category": [
          {
            "coding": [
              {
                "code": "GE",
                "system": "http://terminology.hl7.org/CodeSystem/v2-0074"
              }
            ]
          }
        ],
        "code": {
          "coding": [
            {
              "code": "B0001",
              "display": "Full blood count"
            }
          ]
        },
        "effectiveDateTime": "2018-03-09T15:00:00+00:00",
        "identifier": [
          {
            "type": {
              "coding": [
                {
                  "code": "FILL",
                  "system": "http://terminology.hl7.org/CodeSystem/v2-0203"
                }
              ]
            },
            "value": "914694928301"
          }
        ],
        "issued": "2018-03-09T15:00:00+00:00",
        "performer": [
          {
            "display": "NHS North West Genomics",
            "identifier": {
              "system": "https://fhir.nhs.uk/Id/ods-organization-code",
              "value": "699X0"
            },
            "type": "Organization"
          }
        ],
        "result": [
          {
            "display": "White blood cell (WBC) count",
            "reference": "urn:uuid:cff2cfd2-bbfc-4923-bb33-be7cb7034cdb",
            "type": "Observation"
          },
          {
            "display": "Haemoglobin (Hb)",
            "reference": "urn:uuid:3af1ad89-76bf-46ec-a459-837071b06ce7",
            "type": "Observation"
          },
          {
            "display": "Platelet (PLT) count",
            "reference": "urn:uuid:38d8d2b1-161c-4497-8f46-5f3f1e948644",
            "type": "Observation"
          },
          {
            "display": "Red blood cell (RBC) count",
            "reference": "urn:uuid:58698c4d-cbe0-40d4-bf89-2d3f8f40cf67",
            "type": "Observation"
          },
          {
            "display": "Mean cell volume (MCV)",
            "reference": "urn:uuid:6a9984ca-bf35-4646-be8b-6533a08894b3",
            "type": "Observation"
          }
        ],
        "specimen": [
          {
            "reference": "urn:uuid:3806d799-d27e-4d5b-a118-f354f9896f8d",
            "type": "Specimen"
          }
        ],
        "status": "final",
        "subject": {
          "identifier": {
            "assigner": {
              "identifier": {
                "system": "https://fhir.nhs.uk/Id/ods-organization-code",
                "value": "X24"
              }
            },
            "system": "https://fhir.nhs.uk/Id/nhs-number",
            "type": {
              "coding": [
                {
                  "code": "NH",
                  "system": "http://terminology.hl7.org/CodeSystem/v2-0203"
                }
              ]
            },
            "value": "9737383257"
          },
          "reference": "urn:uuid:c29c4523-f8c4-4d4b-86cf-d46e7efc390a"
        }
      }
    },
    {
      "fullUrl": "urn:uuid:3dbfb367-899f-4515-8b05-aff29bf40c55",
      "resource": {
        "resourceType": "Binary",
        "contentType": "application/pdf",
        "data": "JVBERi0xLjQKJcOkw7zDtsOfCjIgMCBvYmoKPDw...EyNDk0IDAwMDAwIG4gCnRyYWlsZXIKPDwvU2l6ZS"
      }
    },
    {
      "fullUrl": "urn:uuid:dab7b4d1-cf5e-47b7-b6dd-d94b11e32489",
      "resource": {
        "resourceType": "DocumentReference",
        "content": [
          {
            "attachment": {
              "contentType": "application/pdf",
              "url": "urn:uuid:3dbfb367-899f-4515-8b05-aff29bf40c55"
            }
          }
        ],
        "context": {
          "period": {
            "end": "2018-11-09T12:38:51+00:00",
            "start": "2018-11-09T12:38:51+00:00"
          },
          "related": [
            {
              "identifier": {
                "assigner": {
                  "identifier": {
                    "system": "https://fhir.nhs.uk/Id/ods-organization-code",
                    "value": "7A4BV"
                  }
                },
                "type": {
                  "coding": [
                    {
                      "code": "FILL",
                      "system": "http://terminology.hl7.org/CodeSystem/v2-0203"
                    }
                  ]
                },
                "value": "287018"
              },
              "reference": "urn:uuid:f0a5a7f5-f7d4-4afd-a2a2-8f0fe49c0893",
              "type": "DiagnosticReport"
            }
          ]
        },
        "custodian": {
          "identifier": {
            "system": "https://fhir.nhs.uk/Id/ods-organization-code",
            "value": "699X0"
          },
          "type": "Organization"
        },
        "date": "2018-11-09T12:38:51+00:00",
        "identifier": [
          {
            "assigner": {
              "identifier": {
                "system": "https://fhir.nhs.uk/Id/ods-organization-code",
                "value": "7A4BV"
              }
            },
            "type": {
              "coding": [
                {
                  "code": "FILL",
                  "system": "http://terminology.hl7.org/CodeSystem/v2-0203"
                }
              ]
            },
            "value": "287018"
          }
        ],
        "status": "current",
        "subject": {
          "identifier": {
            "assigner": {
              "identifier": {
                "system": "https://fhir.nhs.uk/Id/ods-organization-code",
                "value": "X24"
              }
            },
            "system": "https://fhir.nhs.uk/Id/nhs-number",
            "type": {
              "coding": [
                {
                  "code": "NH",
                  "system": "http://terminology.hl7.org/CodeSystem/v2-0203"
                }
              ]
            },
            "value": "9737383257"
          },
          "reference": "urn:uuid:c29c4523-f8c4-4d4b-86cf-d46e7efc390a"
        },
        "type": {
          "coding": [
            {
              "code": "CATH",
              "display": "Cardiac Catheter Report",
              "system": "L"
            }
          ]
        }
      }
    },
    {
      "fullUrl": "urn:uuid:325785b1-0e8c-47e4-8dde-79ad71ecfd72",
      "resource": {
        "resourceType": "Binary",
        "contentType": "application/pdf",
        "data": "AxNi9Sb290IDE0IDAgUgovSW5mbyAxNSAwIFIKL0lEIFsgPE...KPj4Kc3RhcnR4cmVmCjEyNzg3CiUlRU9GCg=="
      }
    },
    {
      "fullUrl": "urn:uuid:aaa1d336-2759-449d-8737-323f46b4ab78",
      "resource": {
        "resourceType": "DocumentReference",
        "content": [
          {
            "attachment": {
              "contentType": "application/pdf",
              "url": "urn:uuid:325785b1-0e8c-47e4-8dde-79ad71ecfd72"
            }
          }
        ],
        "context": {
          "period": {
            "end": "2018-11-09T12:38:51+00:00",
            "start": "2018-11-09T12:38:51+00:00"
          },
          "related": [
            {
              "identifier": {
                "assigner": {
                  "identifier": {
                    "system": "https://fhir.nhs.uk/Id/ods-organization-code",
                    "value": "7A4BV"
                  }
                },
                "type": {
                  "coding": [
                    {
                      "code": "FILL",
                      "system": "http://terminology.hl7.org/CodeSystem/v2-0203"
                    }
                  ]
                },
                "value": "287018"
              },
              "reference": "urn:uuid:f0a5a7f5-f7d4-4afd-a2a2-8f0fe49c0893",
              "type": "DiagnosticReport"
            }
          ]
        },
        "custodian": {
          "identifier": {
            "system": "https://fhir.nhs.uk/Id/ods-organization-code",
            "value": "699X0"
          },
          "type": "Organization"
        },
        "date": "2018-11-09T12:38:51+00:00",
        "identifier": [
          {
            "assigner": {
              "identifier": {
                "system": "https://fhir.nhs.uk/Id/ods-organization-code",
                "value": "7A4BV"
              }
            },
            "type": {
              "coding": [
                {
                  "code": "FILL",
                  "system": "http://terminology.hl7.org/CodeSystem/v2-0203"
                }
              ]
            },
            "value": "287018"
          }
        ],
        "status": "current",
        "subject": {
          "identifier": {
            "assigner": {
              "identifier": {
                "system": "https://fhir.nhs.uk/Id/ods-organization-code",
                "value": "X24"
              }
            },
            "system": "https://fhir.nhs.uk/Id/nhs-number",
            "type": {
              "coding": [
                {
                  "code": "NH",
                  "system": "http://terminology.hl7.org/CodeSystem/v2-0203"
                }
              ]
            },
            "value": "9737383257"
          },
          "reference": "urn:uuid:c29c4523-f8c4-4d4b-86cf-d46e7efc390a"
        },
        "type": {
          "coding": [
            {
              "code": "CATH",
              "display": "Cardiac Catheter Report",
              "system": "L"
            }
          ]
        }
      }
    },
    {
      "fullUrl": "urn:uuid:f0a5a7f5-f7d4-4afd-a2a2-8f0fe49c0893",
      "resource": {
        "resourceType": "DiagnosticReport",
        "category": [
          {
            "coding": [
              {
                "code": "GE",
                "system": "http://terminology.hl7.org/CodeSystem/v2-0074"
              }
            ]
          }
        ],
        "code": {
          "coding": [
            {
              "code": "CATH",
              "display": "Cardiac Catheter Report",
              "system": "L"
            }
          ]
        },
        "effectiveDateTime": "2018-11-09T12:38:51+00:00",
        "identifier": [
          {
            "assigner": {
              "identifier": {
                "system": "https://fhir.nhs.uk/Id/ods-organization-code",
                "value": "7A4BV"
              }
            },
            "type": {
              "coding": [
                {
                  "code": "FILL",
                  "system": "http://terminology.hl7.org/CodeSystem/v2-0203"
                }
              ]
            },
            "value": "287018"
          }
        ],
        "issued": "2018-11-09T12:48:18+00:00",
        "performer": [
          {
            "display": "NHS North West Genomics",
            "identifier": {
              "system": "https://fhir.nhs.uk/Id/ods-organization-code",
              "value": "699X0"
            },
            "type": "Organization"
          }
        ],
        "status": "partial",
        "subject": {
          "identifier": {
            "assigner": {
              "identifier": {
                "system": "https://fhir.nhs.uk/Id/ods-organization-code",
                "value": "X24"
              }
            },
            "system": "https://fhir.nhs.uk/Id/nhs-number",
            "type": {
              "coding": [
                {
                  "code": "NH",
                  "system": "http://terminology.hl7.org/CodeSystem/v2-0203"
                }
              ]
            },
            "value": "9737383257"
          },
          "reference": "urn:uuid:c29c4523-f8c4-4d4b-86cf-d46e7efc390a"
        }
      }
    },
    {
      "fullUrl": "urn:uuid:3305813f-971a-438f-a7d9-294eed027a3e",
      "resource": {
        "resourceType": "Binary",
        "contentType": "application/pdf",
        "data": "JVBERi0xLjQKJcOkw7zDtsOfCjIgMCBvYm...VmCjEyNzg3CiUlRU9GCg=="
      }
    },
    {
      "fullUrl": "urn:uuid:dbddd056-669a-4792-a5d1-2126fbefd21e",
      "resource": {
        "resourceType": "DocumentReference",
        "content": [
          {
            "attachment": {
              "contentType": "application/pdf",
              "url": "urn:uuid:3305813f-971a-438f-a7d9-294eed027a3e"
            }
          }
        ],
        "context": {
          "period": {
            "end": "2018-11-09T12:38:51+00:00",
            "start": "2018-11-09T12:38:51+00:00"
          },
          "related": [
            {
              "identifier": {
                "assigner": {
                  "identifier": {
                    "system": "https://fhir.nhs.uk/Id/ods-organization-code",
                    "value": "7A4BV"
                  }
                },
                "type": {
                  "coding": [
                    {
                      "code": "FILL",
                      "system": "http://terminology.hl7.org/CodeSystem/v2-0203"
                    }
                  ]
                },
                "value": "A28701"
              },
              "reference": "urn:uuid:3716862e-e2da-495b-8049-66f4837fcc21",
              "type": "DiagnosticReport"
            }
          ]
        },
        "custodian": {
          "identifier": {
            "system": "https://fhir.nhs.uk/Id/ods-organization-code",
            "value": "699X0"
          },
          "type": "Organization"
        },
        "date": "2018-11-09T12:38:51+00:00",
        "identifier": [
          {
            "assigner": {
              "identifier": {
                "system": "https://fhir.nhs.uk/Id/ods-organization-code",
                "value": "7A4BV"
              }
            },
            "type": {
              "coding": [
                {
                  "code": "FILL",
                  "system": "http://terminology.hl7.org/CodeSystem/v2-0203"
                }
              ]
            },
            "value": "A28701"
          }
        ],
        "status": "current",
        "subject": {
          "identifier": {
            "assigner": {
              "identifier": {
                "system": "https://fhir.nhs.uk/Id/ods-organization-code",
                "value": "X24"
              }
            },
            "system": "https://fhir.nhs.uk/Id/nhs-number",
            "type": {
              "coding": [
                {
                  "code": "NH",
                  "system": "http://terminology.hl7.org/CodeSystem/v2-0203"
                }
              ]
            },
            "value": "9737383257"
          },
          "reference": "urn:uuid:c29c4523-f8c4-4d4b-86cf-d46e7efc390a"
        },
        "type": {
          "coding": [
            {
              "code": "Appointment",
              "display": "Appointment Letter",
              "system": "L"
            }
          ]
        }
      }
    },
    {
      "fullUrl": "urn:uuid:3716862e-e2da-495b-8049-66f4837fcc21",
      "resource": {
        "resourceType": "DiagnosticReport",
        "category": [
          {
            "coding": [
              {
                "code": "GE",
                "system": "http://terminology.hl7.org/CodeSystem/v2-0074"
              }
            ]
          }
        ],
        "code": {
          "coding": [
            {
              "code": "Appointment",
              "display": "AppointmentLetter",
              "system": "L"
            }
          ]
        },
        "effectiveDateTime": "2018-11-09T12:38:51+00:00",
        "identifier": [
          {
            "assigner": {
              "identifier": {
                "system": "https://fhir.nhs.uk/Id/ods-organization-code",
                "value": "7A4BV"
              }
            },
            "type": {
              "coding": [
                {
                  "code": "FILL",
                  "system": "http://terminology.hl7.org/CodeSystem/v2-0203"
                }
              ]
            },
            "value": "A28701"
          }
        ],
        "issued": "2018-11-09T12:48:18+00:00",
        "performer": [
          {
            "display": "NHS North West Genomics",
            "identifier": {
              "system": "https://fhir.nhs.uk/Id/ods-organization-code",
              "value": "699X0"
            },
            "type": "Organization"
          }
        ],
        "status": "partial",
        "subject": {
          "identifier": {
            "assigner": {
              "identifier": {
                "system": "https://fhir.nhs.uk/Id/ods-organization-code",
                "value": "X24"
              }
            },
            "system": "https://fhir.nhs.uk/Id/nhs-number",
            "type": {
              "coding": [
                {
                  "code": "NH",
                  "system": "http://terminology.hl7.org/CodeSystem/v2-0203"
                }
              ]
            },
            "value": "9737383257"
          },
          "reference": "urn:uuid:c29c4523-f8c4-4d4b-86cf-d46e7efc390a"
        }
      }
    },
    {
      "fullUrl": "urn:uuid:2758d3a7-cb0a-4cfe-85a9-79c3a39f4d5d",
      "resource": {
        "resourceType": "Observation",
        "code": {
          "coding": [
            {
              "code": "INTER",
              "display": "INTERPRETATION",
              "system": "L"
            }
          ]
        },
        "effectiveDateTime": "2019-05-14T10:24:17+00:00",
        "identifier": [
          {
            "type": {
              "coding": [
                {
                  "code": "FILL",
                  "system": "http://terminology.hl7.org/CodeSystem/v2-0203"
                }
              ]
            },
            "value": "190000041:27491"
          }
        ],
        "note": [
          {
            "text": "Interpreted by: ACME Super User, Signed on 05/14/2019 at 10:24\\n"
          }
        ],
        "performer": [
          {
            "identifier": {
              "system": "https://fhir.nhs.uk/Id/ods-organization-code",
              "value": "699X0"
            },
            "type": "Organization"
          }
        ],
        "status": "final",
        "subject": {
          "identifier": {
            "assigner": {
              "identifier": {
                "system": "https://fhir.nhs.uk/Id/ods-organization-code",
                "value": "X24"
              }
            },
            "system": "https://fhir.nhs.uk/Id/nhs-number",
            "type": {
              "coding": [
                {
                  "code": "NH",
                  "system": "http://terminology.hl7.org/CodeSystem/v2-0203"
                }
              ]
            },
            "value": "9737383257"
          },
          "reference": "urn:uuid:c29c4523-f8c4-4d4b-86cf-d46e7efc390a"
        },
        "valueString": "rwtu"
      }
    },
    {
      "fullUrl": "urn:uuid:0e7e0837-0623-4f42-b165-7290bdf8488b",
      "resource": {
        "resourceType": "Observation",
        "code": {
          "coding": [
            {
              "code": "RESTE",
              "display": "Reason for testing",
              "system": "L"
            }
          ]
        },
        "effectiveDateTime": "2019-05-14T10:24:17+00:00",
        "identifier": [
          {
            "type": {
              "coding": [
                {
                  "code": "FILL",
                  "system": "http://terminology.hl7.org/CodeSystem/v2-0203"
                }
              ]
            },
            "value": "190000041:27491"
          }
        ],
        "performer": [
          {
            "identifier": {
              "system": "https://fhir.nhs.uk/Id/ods-organization-code",
              "value": "699X0"
            },
            "type": "Organization"
          }
        ],
        "status": "final",
        "subject": {
          "identifier": {
            "assigner": {
              "identifier": {
                "system": "https://fhir.nhs.uk/Id/ods-organization-code",
                "value": "X24"
              }
            },
            "system": "https://fhir.nhs.uk/Id/nhs-number",
            "type": {
              "coding": [
                {
                  "code": "NH",
                  "system": "http://terminology.hl7.org/CodeSystem/v2-0203"
                }
              ]
            },
            "value": "9737383257"
          },
          "reference": "urn:uuid:c29c4523-f8c4-4d4b-86cf-d46e7efc390a"
        },
        "valueString": "erw"
      }
    },
    {
      "fullUrl": "urn:uuid:6c60ac0d-192a-480a-8723-33acfa6fc4d6",
      "resource": {
        "resourceType": "Observation",
        "code": {
          "coding": [
            {
              "code": "TMETH",
              "display": "Test Methodology",
              "system": "L"
            }
          ]
        },
        "effectiveDateTime": "2019-05-14T10:24:17+00:00",
        "identifier": [
          {
            "type": {
              "coding": [
                {
                  "code": "FILL",
                  "system": "http://terminology.hl7.org/CodeSystem/v2-0203"
                }
              ]
            },
            "value": "190000041:27491"
          }
        ],
        "performer": [
          {
            "identifier": {
              "system": "https://fhir.nhs.uk/Id/ods-organization-code",
              "value": "699X0"
            },
            "type": "Organization"
          }
        ],
        "status": "final",
        "subject": {
          "identifier": {
            "assigner": {
              "identifier": {
                "system": "https://fhir.nhs.uk/Id/ods-organization-code",
                "value": "X24"
              }
            },
            "system": "https://fhir.nhs.uk/Id/nhs-number",
            "type": {
              "coding": [
                {
                  "code": "NH",
                  "system": "http://terminology.hl7.org/CodeSystem/v2-0203"
                }
              ]
            },
            "value": "9737383257"
          },
          "reference": "urn:uuid:c29c4523-f8c4-4d4b-86cf-d46e7efc390a"
        },
        "valueString": "sfjg"
      }
    },
    {
      "fullUrl": "urn:uuid:f40cce43-537d-43e5-888b-78a9ae1c50cb",
      "resource": {
        "resourceType": "Observation",
        "code": {
          "coding": [
            {
              "code": "RESUM",
              "display": "Result summary",
              "system": "L"
            }
          ]
        },
        "effectiveDateTime": "2019-05-14T10:24:17+00:00",
        "identifier": [
          {
            "type": {
              "coding": [
                {
                  "code": "FILL",
                  "system": "http://terminology.hl7.org/CodeSystem/v2-0203"
                }
              ]
            },
            "value": "190000041:27491"
          }
        ],
        "performer": [
          {
            "identifier": {
              "system": "https://fhir.nhs.uk/Id/ods-organization-code",
              "value": "699X0"
            },
            "type": "Organization"
          }
        ],
        "status": "final",
        "subject": {
          "identifier": {
            "assigner": {
              "identifier": {
                "system": "https://fhir.nhs.uk/Id/ods-organization-code",
                "value": "X24"
              }
            },
            "system": "https://fhir.nhs.uk/Id/nhs-number",
            "type": {
              "coding": [
                {
                  "code": "NH",
                  "system": "http://terminology.hl7.org/CodeSystem/v2-0203"
                }
              ]
            },
            "value": "9737383257"
          },
          "reference": "urn:uuid:c29c4523-f8c4-4d4b-86cf-d46e7efc390a"
        },
        "valueString": "tyityu"
      }
    },
    {
      "fullUrl": "urn:uuid:182b212b-0556-4940-9644-006e766e2570",
      "resource": {
        "resourceType": "Observation",
        "code": {
          "coding": [
            {
              "code": "PATPH",
              "display": "Patient phenotype",
              "system": "L"
            }
          ]
        },
        "effectiveDateTime": "2019-05-14T10:24:17+00:00",
        "identifier": [
          {
            "type": {
              "coding": [
                {
                  "code": "FILL",
                  "system": "http://terminology.hl7.org/CodeSystem/v2-0203"
                }
              ]
            },
            "value": "190000041:27491"
          }
        ],
        "performer": [
          {
            "identifier": {
              "system": "https://fhir.nhs.uk/Id/ods-organization-code",
              "value": "699X0"
            },
            "type": "Organization"
          }
        ],
        "status": "final",
        "subject": {
          "identifier": {
            "assigner": {
              "identifier": {
                "system": "https://fhir.nhs.uk/Id/ods-organization-code",
                "value": "X24"
              }
            },
            "system": "https://fhir.nhs.uk/Id/nhs-number",
            "type": {
              "coding": [
                {
                  "code": "NH",
                  "system": "http://terminology.hl7.org/CodeSystem/v2-0203"
                }
              ]
            },
            "value": "9737383257"
          },
          "reference": "urn:uuid:c29c4523-f8c4-4d4b-86cf-d46e7efc390a"
        },
        "valueString": "ghfjg"
      }
    },
    {
      "fullUrl": "urn:uuid:ded27131-da36-402f-ba56-41a8b5d4012e",
      "resource": {
        "resourceType": "Observation",
        "code": {
          "coding": [
            {
              "code": "FOLL",
              "display": "Follow-up",
              "system": "L"
            }
          ]
        },
        "effectiveDateTime": "2019-05-14T10:24:17+00:00",
        "identifier": [
          {
            "type": {
              "coding": [
                {
                  "code": "FILL",
                  "system": "http://terminology.hl7.org/CodeSystem/v2-0203"
                }
              ]
            },
            "value": "190000041:27491"
          }
        ],
        "performer": [
          {
            "identifier": {
              "system": "https://fhir.nhs.uk/Id/ods-organization-code",
              "value": "699X0"
            },
            "type": "Organization"
          }
        ],
        "status": "final",
        "subject": {
          "identifier": {
            "assigner": {
              "identifier": {
                "system": "https://fhir.nhs.uk/Id/ods-organization-code",
                "value": "X24"
              }
            },
            "system": "https://fhir.nhs.uk/Id/nhs-number",
            "type": {
              "coding": [
                {
                  "code": "NH",
                  "system": "http://terminology.hl7.org/CodeSystem/v2-0203"
                }
              ]
            },
            "value": "9737383257"
          },
          "reference": "urn:uuid:c29c4523-f8c4-4d4b-86cf-d46e7efc390a"
        },
        "valueString": "yue"
      }
    },
    {
      "fullUrl": "urn:uuid:dd164967-d347-4248-b685-632e1192793a",
      "resource": {
        "resourceType": "Binary",
        "contentType": "application/pdf",
        "data": ""
      }
    },
    {
      "fullUrl": "urn:uuid:4ac33493-9dcf-4eb7-afdd-4c3ba6a25186",
      "resource": {
        "resourceType": "DocumentReference",
        "content": [
          {
            "attachment": {
              "contentType": "application/pdf",
              "url": "urn:uuid:dd164967-d347-4248-b685-632e1192793a"
            }
          }
        ],
        "context": {
          "period": {
            "end": "2019-05-14T10:24:17+00:00",
            "start": "2019-05-14T10:24:17+00:00"
          },
          "related": [
            {
              "identifier": {
                "type": {
                  "coding": [
                    {
                      "code": "FILL",
                      "system": "http://terminology.hl7.org/CodeSystem/v2-0203"
                    }
                  ]
                },
                "value": "190000041:27491"
              },
              "reference": "urn:uuid:a6bbe990-a664-42c9-ac85-b9da87bd57ab",
              "type": "DiagnosticReport"
            }
          ]
        },
        "custodian": {
          "identifier": {
            "system": "https://fhir.nhs.uk/Id/ods-organization-code",
            "value": "699X0"
          },
          "type": "Organization"
        },
        "date": "2019-05-14T10:24:17+00:00",
        "identifier": [
          {
            "type": {
              "coding": [
                {
                  "code": "FILL",
                  "system": "http://terminology.hl7.org/CodeSystem/v2-0203"
                }
              ]
            },
            "value": "190000041:27491"
          }
        ],
        "status": "current",
        "subject": {
          "identifier": {
            "assigner": {
              "identifier": {
                "system": "https://fhir.nhs.uk/Id/ods-organization-code",
                "value": "X24"
              }
            },
            "system": "https://fhir.nhs.uk/Id/nhs-number",
            "type": {
              "coding": [
                {
                  "code": "NH",
                  "system": "http://terminology.hl7.org/CodeSystem/v2-0203"
                }
              ]
            },
            "value": "9737383257"
          },
          "reference": "urn:uuid:c29c4523-f8c4-4d4b-86cf-d46e7efc390a"
        },
        "type": {
          "coding": [
            {
              "code": "823781000000108",
              "display": "MDT (multidisciplinary team) letter",
              "system": "http://snomed.info/sct"
            }
          ]
        }
      }
    },
    {
      "fullUrl": "urn:uuid:dff62c4b-3815-4a6f-b6db-4f7670a14164",
      "resource": {
        "resourceType": "Observation",
        "code": {
          "coding": [
            {
              "code": "RESLT",
              "display": "Result",
              "system": "L"
            }
          ]
        },
        "effectiveDateTime": "2019-05-14T10:24:17+00:00",
        "identifier": [
          {
            "type": {
              "coding": [
                {
                  "code": "FILL",
                  "system": "http://terminology.hl7.org/CodeSystem/v2-0203"
                }
              ]
            },
            "value": "190000041:27491"
          }
        ],
        "performer": [
          {
            "identifier": {
              "system": "https://fhir.nhs.uk/Id/ods-organization-code",
              "value": "699X0"
            },
            "type": "Organization"
          }
        ],
        "status": "final",
        "subject": {
          "identifier": {
            "assigner": {
              "identifier": {
                "system": "https://fhir.nhs.uk/Id/ods-organization-code",
                "value": "X24"
              }
            },
            "system": "https://fhir.nhs.uk/Id/nhs-number",
            "type": {
              "coding": [
                {
                  "code": "NH",
                  "system": "http://terminology.hl7.org/CodeSystem/v2-0203"
                }
              ]
            },
            "value": "9737383257"
          },
          "reference": "urn:uuid:c29c4523-f8c4-4d4b-86cf-d46e7efc390a"
        },
        "valueString": "dhjhd"
      }
    },
    {
      "fullUrl": "urn:uuid:8b9c8281-ffdb-42d6-9abb-1cba651bd4bb",
      "resource": {
        "resourceType": "Observation",
        "code": {
          "coding": [
            {
              "code": "GRFALN1",
              "display": "AlphaNumeric Generic Result Field 1",
              "system": "L"
            }
          ]
        },
        "effectiveDateTime": "2019-05-14T10:23:35+00:00",
        "identifier": [
          {
            "type": {
              "coding": [
                {
                  "code": "FILL",
                  "system": "http://terminology.hl7.org/CodeSystem/v2-0203"
                }
              ]
            },
            "value": "190000041:27491"
          }
        ],
        "performer": [
          {
            "identifier": {
              "system": "https://fhir.nhs.uk/Id/ods-organization-code",
              "value": "699X0"
            },
            "type": "Organization"
          }
        ],
        "status": "final",
        "subject": {
          "identifier": {
            "assigner": {
              "identifier": {
                "system": "https://fhir.nhs.uk/Id/ods-organization-code",
                "value": "X24"
              }
            },
            "system": "https://fhir.nhs.uk/Id/nhs-number",
            "type": {
              "coding": [
                {
                  "code": "NH",
                  "system": "http://terminology.hl7.org/CodeSystem/v2-0203"
                }
              ]
            },
            "value": "9737383257"
          },
          "reference": "urn:uuid:c29c4523-f8c4-4d4b-86cf-d46e7efc390a"
        },
        "valueString": "234dfsgsg"
      }
    },
    {
      "fullUrl": "urn:uuid:eec898a8-359e-480d-bc42-719a0c0244b9",
      "resource": {
        "resourceType": "Binary",
        "contentType": "application/pdf",
        "data": "JVBERi0xLjMKJeLjz9MKMiAwIG9iago8PC..."
      }
    },
    {
      "fullUrl": "urn:uuid:80d71a36-de12-4016-9293-ac94c2fcc5ae",
      "resource": {
        "resourceType": "DocumentReference",
        "content": [
          {
            "attachment": {
              "contentType": "application/pdf",
              "url": "urn:uuid:eec898a8-359e-480d-bc42-719a0c0244b9"
            }
          }
        ],
        "context": {
          "period": {
            "end": "2019-05-14T10:23:35+00:00",
            "start": "2019-05-14T10:23:35+00:00"
          },
          "related": [
            {
              "identifier": {
                "type": {
                  "coding": [
                    {
                      "code": "FILL",
                      "system": "http://terminology.hl7.org/CodeSystem/v2-0203"
                    }
                  ]
                },
                "value": "190000041:27491"
              },
              "reference": "urn:uuid:a6bbe990-a664-42c9-ac85-b9da87bd57ab",
              "type": "DiagnosticReport"
            }
          ]
        },
        "custodian": {
          "identifier": {
            "system": "https://fhir.nhs.uk/Id/ods-organization-code",
            "value": "699X0"
          },
          "type": "Organization"
        },
        "date": "2019-05-14T10:23:35+00:00",
        "identifier": [
          {
            "type": {
              "coding": [
                {
                  "code": "FILL",
                  "system": "http://terminology.hl7.org/CodeSystem/v2-0203"
                }
              ]
            },
            "value": "190000041:27491"
          }
        ],
        "status": "current",
        "subject": {
          "identifier": {
            "assigner": {
              "identifier": {
                "system": "https://fhir.nhs.uk/Id/ods-organization-code",
                "value": "X24"
              }
            },
            "system": "https://fhir.nhs.uk/Id/nhs-number",
            "type": {
              "coding": [
                {
                  "code": "NH",
                  "system": "http://terminology.hl7.org/CodeSystem/v2-0203"
                }
              ]
            },
            "value": "9737383257"
          },
          "reference": "urn:uuid:c29c4523-f8c4-4d4b-86cf-d46e7efc390a"
        },
        "type": {
          "coding": [
            {
              "code": "MOLT",
              "display": "MOL TEST NAME",
              "system": "L"
            }
          ]
        }
      }
    },
    {
      "fullUrl": "urn:uuid:9edd566a-6b98-4721-af35-d0b90051a310",
      "resource": {
        "resourceType": "DocumentReference",
        "content": [
          {
            "attachment": {
              "url": "http://documents.example.com/document123.pdf"
            }
          }
        ],
        "context": {
          "period": {
            "end": "2019-05-14T10:23:35+00:00",
            "start": "2019-05-14T10:23:35+00:00"
          },
          "related": [
            {
              "identifier": {
                "type": {
                  "coding": [
                    {
                      "code": "FILL",
                      "system": "http://terminology.hl7.org/CodeSystem/v2-0203"
                    }
                  ]
                },
                "value": "190000041:27491"
              },
              "reference": "urn:uuid:a6bbe990-a664-42c9-ac85-b9da87bd57ab",
              "type": "DiagnosticReport"
            }
          ]
        },
        "custodian": {
          "identifier": {
            "system": "https://fhir.nhs.uk/Id/ods-organization-code",
            "value": "699X0"
          },
          "type": "Organization"
        },
        "date": "2019-05-14T10:23:35+00:00",
        "identifier": [
          {
            "type": {
              "coding": [
                {
                  "code": "FILL",
                  "system": "http://terminology.hl7.org/CodeSystem/v2-0203"
                }
              ]
            },
            "value": "190000041:27491"
          }
        ],
        "status": "current",
        "subject": {
          "identifier": {
            "assigner": {
              "identifier": {
                "system": "https://fhir.nhs.uk/Id/ods-organization-code",
                "value": "X24"
              }
            },
            "system": "https://fhir.nhs.uk/Id/nhs-number",
            "type": {
              "coding": [
                {
                  "code": "NH",
                  "system": "http://terminology.hl7.org/CodeSystem/v2-0203"
                }
              ]
            },
            "value": "9737383257"
          },
          "reference": "urn:uuid:c29c4523-f8c4-4d4b-86cf-d46e7efc390a"
        },
        "type": {
          "coding": [
            {
              "code": "MOLT",
              "display": "MOL TEST NAME",
              "system": "L"
            }
          ]
        }
      }
    },
    {
      "fullUrl": "urn:uuid:66351958-8c11-4073-ba42-be341bc94223",
      "resource": {
        "resourceType": "Specimen",
        "identifier": [
          {
            "type": {
              "coding": [
                {
                  "code": "PLAC",
                  "system": "http://terminology.hl7.org/CodeSystem/v2-0203"
                }
              ]
            },
            "value": "190000041:27491"
          }
        ],
        "receivedTime": "2019-05-14T10:20:00+00:00",
        "status": "unavailable",
        "subject": {
          "identifier": {
            "assigner": {
              "identifier": {
                "system": "https://fhir.nhs.uk/Id/ods-organization-code",
                "value": "X24"
              }
            },
            "system": "https://fhir.nhs.uk/Id/nhs-number",
            "type": {
              "coding": [
                {
                  "code": "NH",
                  "system": "http://terminology.hl7.org/CodeSystem/v2-0203"
                }
              ]
            },
            "value": "9737383257"
          },
          "reference": "urn:uuid:c29c4523-f8c4-4d4b-86cf-d46e7efc390a"
        }
      }
    },
    {
      "fullUrl": "urn:uuid:a6bbe990-a664-42c9-ac85-b9da87bd57ab",
      "resource": {
        "resourceType": "DiagnosticReport",
        "category": [
          {
            "coding": [
              {
                "code": "GE",
                "system": "http://terminology.hl7.org/CodeSystem/v2-0074"
              }
            ]
          }
        ],
        "code": {
          "coding": [
            {
              "code": "MOLT",
              "display": "MOL TEST NAME",
              "system": "L"
            }
          ]
        },
        "effectiveDateTime": "2019-05-14T10:20:00+00:00",
        "identifier": [
          {
            "type": {
              "coding": [
                {
                  "code": "FILL",
                  "system": "http://terminology.hl7.org/CodeSystem/v2-0203"
                }
              ]
            },
            "value": "190000041:27491"
          }
        ],
        "issued": "2019-05-14T10:24:17+00:00",
        "performer": [
          {
            "extension": [
              {
                "url": "http://hl7.org/fhir/StructureDefinition/event-performerFunction",
                "valueCodeableConcept": {
                  "coding": [
                    {
                      "code": "SPRF",
                      "system": "http://terminology.hl7.org/CodeSystem/v3-ParticipationType"
                    }
                  ]
                }
              }
            ]
          },
          {
            "display": "NHS North West Genomics",
            "identifier": {
              "system": "https://fhir.nhs.uk/Id/ods-organization-code",
              "value": "699X0"
            },
            "type": "Organization"
          }
        ],
        "result": [
          {
            "display": "INTERPRETATION",
            "reference": "urn:uuid:2758d3a7-cb0a-4cfe-85a9-79c3a39f4d5d",
            "type": "Observation"
          },
          {
            "display": "Reason for testing",
            "reference": "urn:uuid:0e7e0837-0623-4f42-b165-7290bdf8488b",
            "type": "Observation"
          },
          {
            "display": "Test Methodology",
            "reference": "urn:uuid:6c60ac0d-192a-480a-8723-33acfa6fc4d6",
            "type": "Observation"
          },
          {
            "display": "Result summary",
            "reference": "urn:uuid:f40cce43-537d-43e5-888b-78a9ae1c50cb",
            "type": "Observation"
          },
          {
            "display": "Patient phenotype",
            "reference": "urn:uuid:182b212b-0556-4940-9644-006e766e2570",
            "type": "Observation"
          },
          {
            "display": "Follow-up",
            "reference": "urn:uuid:ded27131-da36-402f-ba56-41a8b5d4012e",
            "type": "Observation"
          },
          {
            "display": "Result",
            "reference": "urn:uuid:dff62c4b-3815-4a6f-b6db-4f7670a14164",
            "type": "Observation"
          },
          {
            "display": "AlphaNumeric Generic Result Field 1",
            "reference": "urn:uuid:8b9c8281-ffdb-42d6-9abb-1cba651bd4bb",
            "type": "Observation"
          }
        ],
        "specimen": [
          {
            "reference": "urn:uuid:66351958-8c11-4073-ba42-be341bc94223",
            "type": "Specimen"
          }
        ],
        "status": "final",
        "subject": {
          "identifier": {
            "assigner": {
              "identifier": {
                "system": "https://fhir.nhs.uk/Id/ods-organization-code",
                "value": "X24"
              }
            },
            "system": "https://fhir.nhs.uk/Id/nhs-number",
            "type": {
              "coding": [
                {
                  "code": "NH",
                  "system": "http://terminology.hl7.org/CodeSystem/v2-0203"
                }
              ]
            },
            "value": "9737383257"
          },
          "reference": "urn:uuid:c29c4523-f8c4-4d4b-86cf-d46e7efc390a"
        }
      }
    }
  ],
  "identifier": {
    "value": "5051095-201905141025"
  },
  "timestamp": "2019-05-14T10:25:27+00:00",
  "type": "message"
}