{
  "resourceType": "Bundle",
  "entry": [
    {
      "fullUrl": "urn:uuid:0d1c213c-d647-4b0a-8a9e-6a27a3b2d5d0",
      "resource": {
        "resourceType": "MessageHeader",
        "destination": [
          {
            "endpoint": "https//fhir.mft.nhs.uk/Endpoint/cymru.nhs.uk",
            "receiver": {
              "identifier": {
                "system": "https://fhir.nhs.uk/Id/ods-organization-code",
                "value": "NHSWales"
              }
            }
          }
        ],
        "eventCoding": {
          "code": "R01",
          "system": "http://terminology.hl7.org/CodeSystem/v2-0003"
        },
        "focus": [
          {
            "reference": "urn:uuid:f5a50119-e0b1-4e95-b499-d25db4975f14"
          }
        ],
        "sender": {
          "identifier": {
            "system": "https://fhir.nhs.uk/Id/ods-organization-code",
            "value": "CAV"
          }
        },
        "source": {
          "endpoint": "https://fhir.nwgenomics.nhs.uk/Endpoint/ACMELab",
          "software": "NW GLH"
        }
      }
    },
    {
      "fullUrl": "urn:uuid:e819fe75-cda1-4e84-aedb-2351ff45f348",
      "resource": {
        "resourceType": "Patient",
        "address": [
          {
            "city": "Baglan",
            "district": "Neath port talbot",
            "line": [
              "A B M U Health Board",
              "One Talbot Gateway"
            ],
            "postalCode": "SA12 7BR"
          }
        ],
        "birthDate": "1999-10-13",
        "gender": "male",
        "identifier": [
          {
            "assigner": {
              "identifier": {
                "system": "https://fhir.nhs.uk/Id/ods-organization-code",
                "value": "7A4"
              }
            },
            "type": {
              "coding": [
                {
                  "code": "PI",
                  "system": "http://terminology.hl7.org/CodeSystem/v2-0203"
                }
              ]
            },
            "value": "403281375"
          },
          {
            "assigner": {
              "identifier": {
                "system": "https://fhir.nhs.uk/Id/ods-organization-code",
                "value": "X24"
              }
            },
            "system": "https://fhir.nhs.uk/Id/nhs-number",
            "type": {
              "coding": [
                {
                  "code": "NH",
                  "system": "http://terminology.hl7.org/CodeSystem/v2-0203"
                }
              ]
            },
            "value": "9737383257"
          }
        ],
        "name": [
          {
            "family": "WREXHAM",
            "given": [
              "Myrcella"
            ],
            "prefix": [
              "Mr"
            ]
          }
        ]
      }
    },
    {
      "fullUrl": "urn:uuid:b4d3c52b-40ad-4c5c-926f-6b14a03c4545",
      "resource": {
        "resourceType": "Encounter",
        "class": {
          "code": "OBSENC",
          "system": "http://terminology.hl7.org/CodeSystem/v3-ActCode"
        },
        "status": "finished",
        "subject": {
          "identifier": {
            "assigner": {
              "identifier": {
                "system": "https://fhir.nhs.uk/Id/ods-organization-code",
                "value": "X24"
              }
            },
            "system": "https://fhir.nhs.uk/Id/nhs-number",
            "type": {
              "coding": [
                {
                  "code": "NH",
                  "system": "http://terminology.hl7.org/CodeSystem/v2-0203"
                }
              ]
            },
            "value": "9737383257"
          },
          "reference": "urn:uuid:e819fe75-cda1-4e84-aedb-2351ff45f348"
        }
      }
    },
    {
      "fullUrl": "urn:uuid:17f1ae7d-729a-4321-9b33-1ecbe3ccb575",
      "resource": {
        "resourceType": "Observation",
        "code": {
          "text": "Report Line 1"
        },
        "effectiveDateTime": "2018-05-24T00:00:00+00:00",
        "identifier": [
          {
            "type": {
              "coding": [
                {
                  "code": "FILL",
                  "system": "http://terminology.hl7.org/CodeSystem/v2-0203"
                }
              ]
            },
            "value": "8005372251-1-M0007"
          }
        ],
        "performer": [
          {
            "identifier": {
              "system": "https://fhir.nhs.uk/Id/ods-organization-code",
              "value": "699X0"
            },
            "type": "Organization"
          }
        ],
        "status": "final",
        "subject": {
          "identifier": {
            "assigner": {
              "identifier": {
                "system": "https://fhir.nhs.uk/Id/ods-organization-code",
                "value": "X24"
              }
            },
            "system": "https://fhir.nhs.uk/Id/nhs-number",
            "type": {
              "coding": [
                {
                  "code": "NH",
                  "system": "http://terminology.hl7.org/CodeSystem/v2-0203"
                }
              ]
            },
            "value": "9737383257"
          },
          "reference": "urn:uuid:e819fe75-cda1-4e84-aedb-2351ff45f348"
        },
        "valueString": "Specimen received: Mid Stream Urine/n/nAccession Number(s) U18S999001A/nWhite Blood Cell Count 10-99 x10/S/6/L/nRed Blood Cell Count >=100 x10/S/6/L/n/n>= 10/S/8 cfu/L Escherichia coli (ECOL)/n/nAntibiotic/Culture: ECOL/n------------------- ------/nNitrofurantoin S/nTrimethoprim S/nAmoxicillin R/n"
      }
    },
    {
      "fullUrl": "urn:uuid:4359563b-5179-4b3e-905d-5af5386c8aca",
      "resource": {
        "resourceType": "Specimen",
        "collection": {
          "collectedDateTime": "2018-05-24T00:00:00+00:00"
        },
        "identifier": [
          {
            "type": {
              "coding": [
                {
                  "code": "FILL",
                  "system": "http://terminology.hl7.org/CodeSystem/v2-0203"
                }
              ]
            },
            "value": "8005372251"
          }
        ],
        "receivedTime": "2018-05-24T00:00:00+00:00",
        "status": "unavailable",
        "subject": {
          "identifier": {
            "assigner": {
              "identifier": {
                "system": "https://fhir.nhs.uk/Id/ods-organization-code",
                "value": "X24"
              }
            },
            "system": "https://fhir.nhs.uk/Id/nhs-number",
            "type": {
              "coding": [
                {
                  "code": "NH",
                  "system": "http://terminology.hl7.org/CodeSystem/v2-0203"
                }
              ]
            },
            "value": "9737383257"
          },
          "reference": "urn:uuid:e819fe75-cda1-4e84-aedb-2351ff45f348"
        },
        "type": {
          "coding": [
            {
              "code": "MMSU",
              "display": "Mid Stream Urine",
              "system": "ACME"
            }
          ]
        }
      }
    },
    {
      "fullUrl": "urn:uuid:041b6a33-a536-4e2d-bc84-4b6715782877",
      "resource": {
        "resourceType": "ServiceRequest",
        "category": [
          {
            "coding": [
              {
                "code": "116148004",
                "system": "http://snomed.info/sct"
              }
            ]
          }
        ],
        "code": {
          "coding": [
            {
              "code": "M0007",
              "display": "Urine MC/T/S"
            }
          ]
        },
        "encounter": {
          "reference": "urn:uuid:b4d3c52b-40ad-4c5c-926f-6b14a03c4545"
        },
        "identifier": [
          {
            "type": {
              "coding": [
                {
                  "code": "FILL",
                  "system": "http://terminology.hl7.org/CodeSystem/v2-0203"
                }
              ]
            },
            "value": "8005372251-1-M0007"
          }
        ],
        "intent": "order",
        "specimen": [
          {
            "reference": "urn:uuid:4359563b-5179-4b3e-905d-5af5386c8aca",
            "type": "Specimen"
          }
        ],
        "status": "completed",
        "subject": {
          "identifier": {
            "assigner": {
              "identifier": {
                "system": "https://fhir.nhs.uk/Id/ods-organization-code",
                "value": "X24"
              }
            },
            "system": "https://fhir.nhs.uk/Id/nhs-number",
            "type": {
              "coding": [
                {
                  "code": "NH",
                  "system": "http://terminology.hl7.org/CodeSystem/v2-0203"
                }
              ]
            },
            "value": "9737383257"
          },
          "reference": "urn:uuid:e819fe75-cda1-4e84-aedb-2351ff45f348"
        }
      }
    },
    {
      "fullUrl": "urn:uuid:f5a50119-e0b1-4e95-b499-d25db4975f14",
      "resource": {
        "resourceType": "DiagnosticReport",
        "basedOn": [
          {
            "identifier": {
              "type": {
                "coding": [
                  {
                    "code": "FILL",
                    "system": "http://terminology.hl7.org/CodeSystem/v2-0203"
                  }
                ]
              },
              "value": "8005372251-1-M0007"
            },
            "reference": "urn:uuid:041b6a33-a536-4e2d-bc84-4b6715782877",
            "type": "ServiceRequest"
          }
        ],
        "category": [
          {
            "coding": [
              {
                "code": "GE",
                "system": "http://terminology.hl7.org/CodeSystem/v2-0074"
              }
            ]
          }
        ],
        "code": {
          "coding": [
            {
              "code": "M0007",
              "display": "Urine MC/T/S"
            }
          ]
        },
        "effectiveDateTime": "2018-05-24T00:00:00+00:00",
        "encounter": {
          "reference": "urn:uuid:b4d3c52b-40ad-4c5c-926f-6b14a03c4545"
        },
        "identifier": [
          {
            "type": {
              "coding": [
                {
                  "code": "FILL",
                  "system": "http://terminology.hl7.org/CodeSystem/v2-0203"
                }
              ]
            },
            "value": "8005372251-1-M0007"
          }
        ],
        "issued": "2018-05-24T00:00:00+00:00",
        "performer": [
          {
            "display": "NHS North West Genomics",
            "identifier": {
              "system": "https://fhir.nhs.uk/Id/ods-organization-code",
              "value": "699X0"
            },
            "type": "Organization"
          }
        ],
        "result": [
          {
            "reference": "urn:uuid:17f1ae7d-729a-4321-9b33-1ecbe3ccb575",
            "type": "Observation"
          }
        ],
        "specimen": [
          {
            "reference": "urn:uuid:4359563b-5179-4b3e-905d-5af5386c8aca",
            "type": "Specimen"
          }
        ],
        "status": "final",
        "subject": {
          "identifier": {
            "assigner": {
              "identifier": {
                "system": "https://fhir.nhs.uk/Id/ods-organization-code",
                "value": "X24"
              }
            },
            "system": "https://fhir.nhs.uk/Id/nhs-number",
            "type": {
              "coding": [
                {
                  "code": "NH",
                  "system": "http://terminology.hl7.org/CodeSystem/v2-0203"
                }
              ]
            },
            "value": "9737383257"
          },
          "reference": "urn:uuid:e819fe75-cda1-4e84-aedb-2351ff45f348"
        }
      }
    }
  ],
  "identifier": {
    "value": "5051095-201905141025"
  },
  "timestamp": "2019-05-14T10:25:27+00:00",
  "type": "message"
}