{
  "resourceType": "Bundle",
  "entry": [
    {
      "fullUrl": "urn:uuid:e2ce4a2f-39f3-409b-bad9-a7702a946531",
      "resource": {
        "resourceType": "MessageHeader",
        "destination": [
          {
            "endpoint": "https//fhir.mft.nhs.uk/Endpoint/cymru.nhs.uk",
            "receiver": {
              "identifier": {
                "system": "https://fhir.nhs.uk/Id/ods-organization-code",
                "value": "NHSWales"
              }
            }
          }
        ],
        "eventCoding": {
          "code": "R01",
          "system": "http://terminology.hl7.org/CodeSystem/v2-0003"
        },
        "focus": [
          {
            "reference": "urn:uuid:b6e9bb81-ef1f-4e5d-a5d8-5984f472f596"
          },
          {
            "reference": "urn:uuid:6fcfe72f-576f-4758-93aa-ac982581a8f7"
          },
          {
            "reference": "urn:uuid:a17ffab9-7f8e-459d-a677-bf8c21625e29"
          },
          {
            "reference": "urn:uuid:ed685149-f669-482e-b205-2e1f66b7e05a"
          },
          {
            "reference": "urn:uuid:ee8fda87-91fc-4107-9d99-092f88dae416"
          }
        ],
        "sender": {
          "identifier": {
            "system": "https://fhir.nhs.uk/Id/ods-organization-code",
            "value": "CAV"
          }
        },
        "source": {
          "endpoint": "https://fhir.nwgenomics.nhs.uk/Endpoint/ACMELab",
          "software": "NW GLH"
        }
      }
    },
    {
      "fullUrl": "urn:uuid:2e2e2d28-884f-4950-8a61-b04ee6335ad3",
      "resource": {
        "resourceType": "Patient",
        "address": [
          {
            "city": "Baglan",
            "district": "Neath port talbot",
            "line": [
              "A B M U Health Board",
              "One Talbot Gateway"
            ],
            "postalCode": "SA12 7BR"
          }
        ],
        "birthDate": "1999-10-13",
        "gender": "male",
        "identifier": [
          {
            "assigner": {
              "identifier": {
                "system": "https://fhir.nhs.uk/Id/ods-organization-code",
                "value": "7A4"
              }
            },
            "type": {
              "coding": [
                {
                  "code": "PI",
                  "system": "http://terminology.hl7.org/CodeSystem/v2-0203"
                }
              ]
            },
            "value": "403281375"
          },
          {
            "assigner": {
              "identifier": {
                "system": "https://fhir.nhs.uk/Id/ods-organization-code",
                "value": "X24"
              }
            },
            "system": "https://fhir.nhs.uk/Id/nhs-number",
            "type": {
              "coding": [
                {
                  "code": "NH",
                  "system": "http://terminology.hl7.org/CodeSystem/v2-0203"
                }
              ]
            },
            "value": "9737383257"
          }
        ],
        "name": [
          {
            "family": "WREXHAM",
            "given": [
              "Myrcella"
            ],
            "prefix": [
              "Mr"
            ]
          }
        ]
      }
    },
    {
      "fullUrl": "urn:uuid:1f042dc9-68c0-4e06-944e-bc90d37ac6da",
      "resource": {
        "resourceType": "Observation",
        "code": {
          "coding": [
            {
              "code": "B3553",
              "display": "HbA1c (IFCC traceable)"
            }
          ]
        },
        "effectiveDateTime": "2018-03-09T15:00:00+00:00",
        "identifier": [
          {
            "type": {
              "coding": [
                {
                  "code": "FILL",
                  "system": "http://terminology.hl7.org/CodeSystem/v2-0203"
                }
              ]
            },
            "value": "914694928301"
          }
        ],
        "performer": [
          {
            "identifier": {
              "system": "https://fhir.nhs.uk/Id/ods-organization-code",
              "value": "699X0"
            },
            "type": "Organization"
          }
        ],
        "referenceRange": [
          {
            "text": "<48"
          }
        ],
        "status": "final",
        "subject": {
          "identifier": {
            "assigner": {
              "identifier": {
                "system": "https://fhir.nhs.uk/Id/ods-organization-code",
                "value": "X24"
              }
            },
            "system": "https://fhir.nhs.uk/Id/nhs-number",
            "type": {
              "coding": [
                {
                  "code": "NH",
                  "system": "http://terminology.hl7.org/CodeSystem/v2-0203"
                }
              ]
            },
            "value": "9737383257"
          },
          "reference": "urn:uuid:2e2e2d28-884f-4950-8a61-b04ee6335ad3"
        },
        "valueQuantity": {
          "system": "http://unitsofmeasure.org",
          "unit": "mmol/mol",
          "value": 49
        }
      }
    },
    {
      "fullUrl": "urn:uuid:3ae51d1b-019e-45b4-bc92-8097d612c6a4",
      "resource": {
        "resourceType": "Specimen",
        "identifier": [
          {
            "type": {
              "coding": [
                {
                  "code": "PLAC",
                  "system": "http://terminology.hl7.org/CodeSystem/v2-0203"
                }
              ]
            },
            "value": "914694928301"
          }
        ],
        "receivedTime": "2018-03-09T15:00:00+00:00",
        "status": "unavailable",
        "subject": {
          "identifier": {
            "assigner": {
              "identifier": {
                "system": "https://fhir.nhs.uk/Id/ods-organization-code",
                "value": "X24"
              }
            },
            "system": "https://fhir.nhs.uk/Id/nhs-number",
            "type": {
              "coding": [
                {
                  "code": "NH",
                  "system": "http://terminology.hl7.org/CodeSystem/v2-0203"
                }
              ]
            },
            "value": "9737383257"
          },
          "reference": "urn:uuid:2e2e2d28-884f-4950-8a61-b04ee6335ad3"
        }
      }
    },
    {
      "fullUrl": "urn:uuid:2de92416-8c2c-4c16-9d6d-c0f57c5b6d6d",
      "resource": {
        "resourceType": "ServiceRequest",
        "category": [
          {
            "coding": [
              {
                "code": "116148004",
                "system": "http://snomed.info/sct"
              }
            ]
          }
        ],
        "code": {
          "coding": [
            {
              "code": "B3051",
              "display": "HbA1c (IFCC traceable)"
            }
          ]
        },
        "identifier": [
          {
            "type": {
              "coding": [
                {
                  "code": "FILL",
                  "system": "http://terminology.hl7.org/CodeSystem/v2-0203"
                }
              ]
            },
            "value": "914694928301"
          }
        ],
        "intent": "order",
        "specimen": [
          {
            "reference": "urn:uuid:3ae51d1b-019e-45b4-bc92-8097d612c6a4",
            "type": "Specimen"
          }
        ],
        "status": "completed",
        "subject": {
          "identifier": {
            "assigner": {
              "identifier": {
                "system": "https://fhir.nhs.uk/Id/ods-organization-code",
                "value": "X24"
              }
            },
            "system": "https://fhir.nhs.uk/Id/nhs-number",
            "type": {
              "coding": [
                {
                  "code": "NH",
                  "system": "http://terminology.hl7.org/CodeSystem/v2-0203"
                }
              ]
            },
            "value": "9737383257"
          },
          "reference": "urn:uuid:2e2e2d28-884f-4950-8a61-b04ee6335ad3"
        }
      }
    },
    {
      "fullUrl": "urn:uuid:b6e9bb81-ef1f-4e5d-a5d8-5984f472f596",
      "resource": {
        "resourceType": "DiagnosticReport",
        "basedOn": [
          {
            "identifier": {
              "type": {
                "coding": [
                  {
                    "code": "FILL",
                    "system": "http://terminology.hl7.org/CodeSystem/v2-0203"
                  }
                ]
              },
              "value": "914694928301"
            },
            "reference": "urn:uuid:2de92416-8c2c-4c16-9d6d-c0f57c5b6d6d",
            "type": "ServiceRequest"
          }
        ],
        "category": [
          {
            "coding": [
              {
                "code": "GE",
                "system": "http://terminology.hl7.org/CodeSystem/v2-0074"
              }
            ]
          }
        ],
        "code": {
          "coding": [
            {
              "code": "B3051",
              "display": "HbA1c (IFCC traceable)"
            }
          ]
        },
        "effectiveDateTime": "2018-03-09T15:00:00+00:00",
        "identifier": [
          {
            "type": {
              "coding": [
                {
                  "code": "FILL",
                  "system": "http://terminology.hl7.org/CodeSystem/v2-0203"
                }
              ]
            },
            "value": "914694928301"
          }
        ],
        "issued": "2018-03-09T15:00:00+00:00",
        "performer": [
          {
            "display": "NHS North West Genomics",
            "identifier": {
              "system": "https://fhir.nhs.uk/Id/ods-organization-code",
              "value": "699X0"
            },
            "type": "Organization"
          }
        ],
        "result": [
          {
            "display": "HbA1c (IFCC traceable)",
            "reference": "urn:uuid:1f042dc9-68c0-4e06-944e-bc90d37ac6da",
            "type": "Observation"
          }
        ],
        "specimen": [
          {
            "reference": "urn:uuid:3ae51d1b-019e-45b4-bc92-8097d612c6a4",
            "type": "Specimen"
          }
        ],
        "status": "final",
        "subject": {
          "identifier": {
            "assigner": {
              "identifier": {
                "system": "https://fhir.nhs.uk/Id/ods-organization-code",
                "value": "X24"
              }
            },
            "system": "https://fhir.nhs.uk/Id/nhs-number",
            "type": {
              "coding": [
                {
                  "code": "NH",
                  "system": "http://terminology.hl7.org/CodeSystem/v2-0203"
                }
              ]
            },
            "value": "9737383257"
          },
          "reference": "urn:uuid:2e2e2d28-884f-4950-8a61-b04ee6335ad3"
        }
      }
    },
    {
      "fullUrl": "urn:uuid:a07d03cb-d88e-47dc-b67c-c53e30bbadc1",
      "resource": {
        "resourceType": "Observation",
        "code": {
          "coding": [
            {
              "code": "B0300",
              "display": "White blood cell (WBC) count"
            }
          ]
        },
        "effectiveDateTime": "2018-03-09T15:00:00+00:00",
        "identifier": [
          {
            "type": {
              "coding": [
                {
                  "code": "FILL",
                  "system": "http://terminology.hl7.org/CodeSystem/v2-0203"
                }
              ]
            },
            "value": "914694928301"
          }
        ],
        "performer": [
          {
            "identifier": {
              "system": "https://fhir.nhs.uk/Id/ods-organization-code",
              "value": "699X0"
            },
            "type": "Organization"
          }
        ],
        "referenceRange": [
          {
            "text": "4.0-11.0"
          }
        ],
        "status": "final",
        "subject": {
          "identifier": {
            "assigner": {
              "identifier": {
                "system": "https://fhir.nhs.uk/Id/ods-organization-code",
                "value": "X24"
              }
            },
            "system": "https://fhir.nhs.uk/Id/nhs-number",
            "type": {
              "coding": [
                {
                  "code": "NH",
                  "system": "http://terminology.hl7.org/CodeSystem/v2-0203"
                }
              ]
            },
            "value": "9737383257"
          },
          "reference": "urn:uuid:2e2e2d28-884f-4950-8a61-b04ee6335ad3"
        },
        "valueQuantity": {
          "system": "http://unitsofmeasure.org",
          "unit": "x10\\S\\9/L",
          "value": 3.5
        }
      }
    },
    {
      "fullUrl": "urn:uuid:fe29a83f-b405-4b59-841b-42873eaac06b",
      "resource": {
        "resourceType": "Observation",
        "code": {
          "coding": [
            {
              "code": "B0307",
              "display": "Haemoglobin (Hb)"
            }
          ]
        },
        "effectiveDateTime": "2018-03-09T15:00:00+00:00",
        "identifier": [
          {
            "type": {
              "coding": [
                {
                  "code": "FILL",
                  "system": "http://terminology.hl7.org/CodeSystem/v2-0203"
                }
              ]
            },
            "value": "914694928301"
          }
        ],
        "performer": [
          {
            "identifier": {
              "system": "https://fhir.nhs.uk/Id/ods-organization-code",
              "value": "699X0"
            },
            "type": "Organization"
          }
        ],
        "referenceRange": [
          {
            "text": "130-180"
          }
        ],
        "status": "final",
        "subject": {
          "identifier": {
            "assigner": {
              "identifier": {
                "system": "https://fhir.nhs.uk/Id/ods-organization-code",
                "value": "X24"
              }
            },
            "system": "https://fhir.nhs.uk/Id/nhs-number",
            "type": {
              "coding": [
                {
                  "code": "NH",
                  "system": "http://terminology.hl7.org/CodeSystem/v2-0203"
                }
              ]
            },
            "value": "9737383257"
          },
          "reference": "urn:uuid:2e2e2d28-884f-4950-8a61-b04ee6335ad3"
        },
        "valueQuantity": {
          "comparator": "<",
          "system": "http://unitsofmeasure.org",
          "unit": "g/L",
          "value": 149
        }
      }
    },
    {
      "fullUrl": "urn:uuid:74b8423e-5184-487b-b97b-53dbf8fa353a",
      "resource": {
        "resourceType": "Observation",
        "code": {
          "coding": [
            {
              "code": "B0314",
              "display": "Platelet (PLT) count"
            }
          ]
        },
        "effectiveDateTime": "2018-03-09T15:00:00+00:00",
        "identifier": [
          {
            "type": {
              "coding": [
                {
                  "code": "FILL",
                  "system": "http://terminology.hl7.org/CodeSystem/v2-0203"
                }
              ]
            },
            "value": "914694928301"
          }
        ],
        "performer": [
          {
            "identifier": {
              "system": "https://fhir.nhs.uk/Id/ods-organization-code",
              "value": "699X0"
            },
            "type": "Organization"
          }
        ],
        "referenceRange": [
          {
            "text": "150-400"
          }
        ],
        "status": "final",
        "subject": {
          "identifier": {
            "assigner": {
              "identifier": {
                "system": "https://fhir.nhs.uk/Id/ods-organization-code",
                "value": "X24"
              }
            },
            "system": "https://fhir.nhs.uk/Id/nhs-number",
            "type": {
              "coding": [
                {
                  "code": "NH",
                  "system": "http://terminology.hl7.org/CodeSystem/v2-0203"
                }
              ]
            },
            "value": "9737383257"
          },
          "reference": "urn:uuid:2e2e2d28-884f-4950-8a61-b04ee6335ad3"
        },
        "valueQuantity": {
          "system": "http://unitsofmeasure.org",
          "unit": "x10\\S\\9/L",
          "value": 500
        }
      }
    },
    {
      "fullUrl": "urn:uuid:e6f74cf8-bb24-462f-aff7-94f13eb2c5ae",
      "resource": {
        "resourceType": "Observation",
        "code": {
          "coding": [
            {
              "code": "B0306",
              "display": "Red blood cell (RBC) count"
            }
          ]
        },
        "effectiveDateTime": "2018-03-09T15:00:00+00:00",
        "identifier": [
          {
            "type": {
              "coding": [
                {
                  "code": "FILL",
                  "system": "http://terminology.hl7.org/CodeSystem/v2-0203"
                }
              ]
            },
            "value": "914694928301"
          }
        ],
        "performer": [
          {
            "identifier": {
              "system": "https://fhir.nhs.uk/Id/ods-organization-code",
              "value": "699X0"
            },
            "type": "Organization"
          }
        ],
        "referenceRange": [
          {
            "text": "4.50-6.00"
          }
        ],
        "status": "final",
        "subject": {
          "identifier": {
            "assigner": {
              "identifier": {
                "system": "https://fhir.nhs.uk/Id/ods-organization-code",
                "value": "X24"
              }
            },
            "system": "https://fhir.nhs.uk/Id/nhs-number",
            "type": {
              "coding": [
                {
                  "code": "NH",
                  "system": "http://terminology.hl7.org/CodeSystem/v2-0203"
                }
              ]
            },
            "value": "9737383257"
          },
          "reference": "urn:uuid:2e2e2d28-884f-4950-8a61-b04ee6335ad3"
        },
        "valueQuantity": {
          "system": "http://unitsofmeasure.org",
          "unit": "x10\\S\\12/L",
          "value": 6.00
        }
      }
    },
    {
      "fullUrl": "urn:uuid:a4780cff-3830-45bf-981f-d3654531c22f",
      "resource": {
        "resourceType": "Observation",
        "code": {
          "coding": [
            {
              "code": "B0309",
              "display": "Mean cell volume (MCV)"
            }
          ]
        },
        "effectiveDateTime": "2018-03-09T15:00:00+00:00",
        "identifier": [
          {
            "type": {
              "coding": [
                {
                  "code": "FILL",
                  "system": "http://terminology.hl7.org/CodeSystem/v2-0203"
                }
              ]
            },
            "value": "914694928301"
          }
        ],
        "performer": [
          {
            "identifier": {
              "system": "https://fhir.nhs.uk/Id/ods-organization-code",
              "value": "699X0"
            },
            "type": "Organization"
          }
        ],
        "referenceRange": [
          {
            "text": "80-100"
          }
        ],
        "status": "final",
        "subject": {
          "identifier": {
            "assigner": {
              "identifier": {
                "system": "https://fhir.nhs.uk/Id/ods-organization-code",
                "value": "X24"
              }
            },
            "system": "https://fhir.nhs.uk/Id/nhs-number",
            "type": {
              "coding": [
                {
                  "code": "NH",
                  "system": "http://terminology.hl7.org/CodeSystem/v2-0203"
                }
              ]
            },
            "value": "9737383257"
          },
          "reference": "urn:uuid:2e2e2d28-884f-4950-8a61-b04ee6335ad3"
        },
        "valueCodeableConcept": {
          "coding": [
            {
              "code": "NA",
              "display": "Not assayed",
              "system": "ACME"
            }
          ]
        }
      }
    },
    {
      "fullUrl": "urn:uuid:2e57c51e-d634-4d7d-b7ab-5f4e9045d8fa",
      "resource": {
        "resourceType": "Specimen",
        "collection": {
          "collectedDateTime": "2018-03-09T14:00:00+00:00"
        },
        "identifier": [
          {
            "type": {
              "coding": [
                {
                  "code": "FILL",
                  "system": "http://terminology.hl7.org/CodeSystem/v2-0203"
                }
              ]
            },
            "value": "9146949283"
          }
        ],
        "receivedTime": "2018-03-09T15:00:00+00:00",
        "status": "unavailable",
        "subject": {
          "identifier": {
            "assigner": {
              "identifier": {
                "system": "https://fhir.nhs.uk/Id/ods-organization-code",
                "value": "X24"
              }
            },
            "system": "https://fhir.nhs.uk/Id/nhs-number",
            "type": {
              "coding": [
                {
                  "code": "NH",
                  "system": "http://terminology.hl7.org/CodeSystem/v2-0203"
                }
              ]
            },
            "value": "9737383257"
          },
          "reference": "urn:uuid:2e2e2d28-884f-4950-8a61-b04ee6335ad3"
        },
        "type": {
          "coding": [
            {
              "code": "BLOO",
              "display": "Blood",
              "system": "ACME"
            }
          ]
        }
      }
    },
    {
      "fullUrl": "urn:uuid:6fcfe72f-576f-4758-93aa-ac982581a8f7",
      "resource": {
        "resourceType": "DiagnosticReport",
        "category": [
          {
            "coding": [
              {
                "code": "GE",
                "system": "http://terminology.hl7.org/CodeSystem/v2-0074"
              }
            ]
          }
        ],
        "code": {
          "coding": [
            {
              "code": "B0001",
              "display": "Full blood count"
            }
          ]
        },
        "effectiveDateTime": "2018-03-09T15:00:00+00:00",
        "identifier": [
          {
            "type": {
              "coding": [
                {
                  "code": "FILL",
                  "system": "http://terminology.hl7.org/CodeSystem/v2-0203"
                }
              ]
            },
            "value": "914694928301"
          }
        ],
        "issued": "2018-03-09T15:00:00+00:00",
        "performer": [
          {
            "display": "NHS North West Genomics",
            "identifier": {
              "system": "https://fhir.nhs.uk/Id/ods-organization-code",
              "value": "699X0"
            },
            "type": "Organization"
          }
        ],
        "result": [
          {
            "display": "White blood cell (WBC) count",
            "reference": "urn:uuid:a07d03cb-d88e-47dc-b67c-c53e30bbadc1",
            "type": "Observation"
          },
          {
            "display": "Haemoglobin (Hb)",
            "reference": "urn:uuid:fe29a83f-b405-4b59-841b-42873eaac06b",
            "type": "Observation"
          },
          {
            "display": "Platelet (PLT) count",
            "reference": "urn:uuid:74b8423e-5184-487b-b97b-53dbf8fa353a",
            "type": "Observation"
          },
          {
            "display": "Red blood cell (RBC) count",
            "reference": "urn:uuid:e6f74cf8-bb24-462f-aff7-94f13eb2c5ae",
            "type": "Observation"
          },
          {
            "display": "Mean cell volume (MCV)",
            "reference": "urn:uuid:a4780cff-3830-45bf-981f-d3654531c22f",
            "type": "Observation"
          }
        ],
        "specimen": [
          {
            "reference": "urn:uuid:2e57c51e-d634-4d7d-b7ab-5f4e9045d8fa",
            "type": "Specimen"
          }
        ],
        "status": "final",
        "subject": {
          "identifier": {
            "assigner": {
              "identifier": {
                "system": "https://fhir.nhs.uk/Id/ods-organization-code",
                "value": "X24"
              }
            },
            "system": "https://fhir.nhs.uk/Id/nhs-number",
            "type": {
              "coding": [
                {
                  "code": "NH",
                  "system": "http://terminology.hl7.org/CodeSystem/v2-0203"
                }
              ]
            },
            "value": "9737383257"
          },
          "reference": "urn:uuid:2e2e2d28-884f-4950-8a61-b04ee6335ad3"
        }
      }
    },
    {
      "fullUrl": "urn:uuid:930e9473-52ce-4b9e-9406-a09ad58c5ce0",
      "resource": {
        "resourceType": "Binary",
        "contentType": "application/pdf",
        "data": "JVBERi0xLjQKJcOkw7zDtsOfCjIgMCBvYmoKPDw...EyNDk0IDAwMDAwIG4gCnRyYWlsZXIKPDwvU2l6ZS"
      }
    },
    {
      "fullUrl": "urn:uuid:0ecd4a6b-f5b7-4ca9-a112-7748b0eb6ce3",
      "resource": {
        "resourceType": "DocumentReference",
        "content": [
          {
            "attachment": {
              "contentType": "application/pdf",
              "url": "urn:uuid:930e9473-52ce-4b9e-9406-a09ad58c5ce0"
            }
          }
        ],
        "context": {
          "period": {
            "end": "2018-11-09T12:38:51+00:00",
            "start": "2018-11-09T12:38:51+00:00"
          },
          "related": [
            {
              "identifier": {
                "assigner": {
                  "identifier": {
                    "system": "https://fhir.nhs.uk/Id/ods-organization-code",
                    "value": "7A4BV"
                  }
                },
                "type": {
                  "coding": [
                    {
                      "code": "FILL",
                      "system": "http://terminology.hl7.org/CodeSystem/v2-0203"
                    }
                  ]
                },
                "value": "287018"
              },
              "reference": "urn:uuid:a17ffab9-7f8e-459d-a677-bf8c21625e29",
              "type": "DiagnosticReport"
            }
          ]
        },
        "custodian": {
          "identifier": {
            "system": "https://fhir.nhs.uk/Id/ods-organization-code",
            "value": "699X0"
          },
          "type": "Organization"
        },
        "date": "2018-11-09T12:38:51+00:00",
        "identifier": [
          {
            "assigner": {
              "identifier": {
                "system": "https://fhir.nhs.uk/Id/ods-organization-code",
                "value": "7A4BV"
              }
            },
            "type": {
              "coding": [
                {
                  "code": "FILL",
                  "system": "http://terminology.hl7.org/CodeSystem/v2-0203"
                }
              ]
            },
            "value": "287018"
          }
        ],
        "status": "current",
        "subject": {
          "identifier": {
            "assigner": {
              "identifier": {
                "system": "https://fhir.nhs.uk/Id/ods-organization-code",
                "value": "X24"
              }
            },
            "system": "https://fhir.nhs.uk/Id/nhs-number",
            "type": {
              "coding": [
                {
                  "code": "NH",
                  "system": "http://terminology.hl7.org/CodeSystem/v2-0203"
                }
              ]
            },
            "value": "9737383257"
          },
          "reference": "urn:uuid:2e2e2d28-884f-4950-8a61-b04ee6335ad3"
        },
        "type": {
          "coding": [
            {
              "code": "CATH",
              "display": "Cardiac Catheter Report",
              "system": "L"
            }
          ]
        }
      }
    },
    {
      "fullUrl": "urn:uuid:fb943721-1e1b-43b9-9c77-d90c4c327700",
      "resource": {
        "resourceType": "Binary",
        "contentType": "application/pdf",
        "data": "AxNi9Sb290IDE0IDAgUgovSW5mbyAxNSAwIFIKL0lEIFsgPE...KPj4Kc3RhcnR4cmVmCjEyNzg3CiUlRU9GCg=="
      }
    },
    {
      "fullUrl": "urn:uuid:7e879964-1add-445c-b59b-5a8d5e3884fc",
      "resource": {
        "resourceType": "DocumentReference",
        "content": [
          {
            "attachment": {
              "contentType": "application/pdf",
              "url": "urn:uuid:fb943721-1e1b-43b9-9c77-d90c4c327700"
            }
          }
        ],
        "context": {
          "period": {
            "end": "2018-11-09T12:38:51+00:00",
            "start": "2018-11-09T12:38:51+00:00"
          },
          "related": [
            {
              "identifier": {
                "assigner": {
                  "identifier": {
                    "system": "https://fhir.nhs.uk/Id/ods-organization-code",
                    "value": "7A4BV"
                  }
                },
                "type": {
                  "coding": [
                    {
                      "code": "FILL",
                      "system": "http://terminology.hl7.org/CodeSystem/v2-0203"
                    }
                  ]
                },
                "value": "287018"
              },
              "reference": "urn:uuid:a17ffab9-7f8e-459d-a677-bf8c21625e29",
              "type": "DiagnosticReport"
            }
          ]
        },
        "custodian": {
          "identifier": {
            "system": "https://fhir.nhs.uk/Id/ods-organization-code",
            "value": "699X0"
          },
          "type": "Organization"
        },
        "date": "2018-11-09T12:38:51+00:00",
        "identifier": [
          {
            "assigner": {
              "identifier": {
                "system": "https://fhir.nhs.uk/Id/ods-organization-code",
                "value": "7A4BV"
              }
            },
            "type": {
              "coding": [
                {
                  "code": "FILL",
                  "system": "http://terminology.hl7.org/CodeSystem/v2-0203"
                }
              ]
            },
            "value": "287018"
          }
        ],
        "status": "current",
        "subject": {
          "identifier": {
            "assigner": {
              "identifier": {
                "system": "https://fhir.nhs.uk/Id/ods-organization-code",
                "value": "X24"
              }
            },
            "system": "https://fhir.nhs.uk/Id/nhs-number",
            "type": {
              "coding": [
                {
                  "code": "NH",
                  "system": "http://terminology.hl7.org/CodeSystem/v2-0203"
                }
              ]
            },
            "value": "9737383257"
          },
          "reference": "urn:uuid:2e2e2d28-884f-4950-8a61-b04ee6335ad3"
        },
        "type": {
          "coding": [
            {
              "code": "CATH",
              "display": "Cardiac Catheter Report",
              "system": "L"
            }
          ]
        }
      }
    },
    {
      "fullUrl": "urn:uuid:a17ffab9-7f8e-459d-a677-bf8c21625e29",
      "resource": {
        "resourceType": "DiagnosticReport",
        "category": [
          {
            "coding": [
              {
                "code": "GE",
                "system": "http://terminology.hl7.org/CodeSystem/v2-0074"
              }
            ]
          }
        ],
        "code": {
          "coding": [
            {
              "code": "CATH",
              "display": "Cardiac Catheter Report",
              "system": "L"
            }
          ]
        },
        "effectiveDateTime": "2018-11-09T12:38:51+00:00",
        "identifier": [
          {
            "assigner": {
              "identifier": {
                "system": "https://fhir.nhs.uk/Id/ods-organization-code",
                "value": "7A4BV"
              }
            },
            "type": {
              "coding": [
                {
                  "code": "FILL",
                  "system": "http://terminology.hl7.org/CodeSystem/v2-0203"
                }
              ]
            },
            "value": "287018"
          }
        ],
        "issued": "2018-11-09T12:48:18+00:00",
        "performer": [
          {
            "display": "NHS North West Genomics",
            "identifier": {
              "system": "https://fhir.nhs.uk/Id/ods-organization-code",
              "value": "699X0"
            },
            "type": "Organization"
          }
        ],
        "status": "partial",
        "subject": {
          "identifier": {
            "assigner": {
              "identifier": {
                "system": "https://fhir.nhs.uk/Id/ods-organization-code",
                "value": "X24"
              }
            },
            "system": "https://fhir.nhs.uk/Id/nhs-number",
            "type": {
              "coding": [
                {
                  "code": "NH",
                  "system": "http://terminology.hl7.org/CodeSystem/v2-0203"
                }
              ]
            },
            "value": "9737383257"
          },
          "reference": "urn:uuid:2e2e2d28-884f-4950-8a61-b04ee6335ad3"
        }
      }
    },
    {
      "fullUrl": "urn:uuid:136d93f6-b545-41dd-a08a-7ea6c372b51e",
      "resource": {
        "resourceType": "Binary",
        "contentType": "application/pdf",
        "data": "JVBERi0xLjQKJcOkw7zDtsOfCjIgMCBvYm...VmCjEyNzg3CiUlRU9GCg=="
      }
    },
    {
      "fullUrl": "urn:uuid:a0dc0fe7-04ca-44c6-80ed-0cb7f7b85827",
      "resource": {
        "resourceType": "DocumentReference",
        "content": [
          {
            "attachment": {
              "contentType": "application/pdf",
              "url": "urn:uuid:136d93f6-b545-41dd-a08a-7ea6c372b51e"
            }
          }
        ],
        "context": {
          "period": {
            "end": "2018-11-09T12:38:51+00:00",
            "start": "2018-11-09T12:38:51+00:00"
          },
          "related": [
            {
              "identifier": {
                "assigner": {
                  "identifier": {
                    "system": "https://fhir.nhs.uk/Id/ods-organization-code",
                    "value": "7A4BV"
                  }
                },
                "type": {
                  "coding": [
                    {
                      "code": "FILL",
                      "system": "http://terminology.hl7.org/CodeSystem/v2-0203"
                    }
                  ]
                },
                "value": "A28701"
              },
              "reference": "urn:uuid:ed685149-f669-482e-b205-2e1f66b7e05a",
              "type": "DiagnosticReport"
            }
          ]
        },
        "custodian": {
          "identifier": {
            "system": "https://fhir.nhs.uk/Id/ods-organization-code",
            "value": "699X0"
          },
          "type": "Organization"
        },
        "date": "2018-11-09T12:38:51+00:00",
        "identifier": [
          {
            "assigner": {
              "identifier": {
                "system": "https://fhir.nhs.uk/Id/ods-organization-code",
                "value": "7A4BV"
              }
            },
            "type": {
              "coding": [
                {
                  "code": "FILL",
                  "system": "http://terminology.hl7.org/CodeSystem/v2-0203"
                }
              ]
            },
            "value": "A28701"
          }
        ],
        "status": "current",
        "subject": {
          "identifier": {
            "assigner": {
              "identifier": {
                "system": "https://fhir.nhs.uk/Id/ods-organization-code",
                "value": "X24"
              }
            },
            "system": "https://fhir.nhs.uk/Id/nhs-number",
            "type": {
              "coding": [
                {
                  "code": "NH",
                  "system": "http://terminology.hl7.org/CodeSystem/v2-0203"
                }
              ]
            },
            "value": "9737383257"
          },
          "reference": "urn:uuid:2e2e2d28-884f-4950-8a61-b04ee6335ad3"
        },
        "type": {
          "coding": [
            {
              "code": "Appointment",
              "display": "Appointment Letter",
              "system": "L"
            }
          ]
        }
      }
    },
    {
      "fullUrl": "urn:uuid:ed685149-f669-482e-b205-2e1f66b7e05a",
      "resource": {
        "resourceType": "DiagnosticReport",
        "category": [
          {
            "coding": [
              {
                "code": "GE",
                "system": "http://terminology.hl7.org/CodeSystem/v2-0074"
              }
            ]
          }
        ],
        "code": {
          "coding": [
            {
              "code": "Appointment",
              "display": "AppointmentLetter",
              "system": "L"
            }
          ]
        },
        "effectiveDateTime": "2018-11-09T12:38:51+00:00",
        "identifier": [
          {
            "assigner": {
              "identifier": {
                "system": "https://fhir.nhs.uk/Id/ods-organization-code",
                "value": "7A4BV"
              }
            },
            "type": {
              "coding": [
                {
                  "code": "FILL",
                  "system": "http://terminology.hl7.org/CodeSystem/v2-0203"
                }
              ]
            },
            "value": "A28701"
          }
        ],
        "issued": "2018-11-09T12:48:18+00:00",
        "performer": [
          {
            "display": "NHS North West Genomics",
            "identifier": {
              "system": "https://fhir.nhs.uk/Id/ods-organization-code",
              "value": "699X0"
            },
            "type": "Organization"
          }
        ],
        "status": "partial",
        "subject": {
          "identifier": {
            "assigner": {
              "identifier": {
                "system": "https://fhir.nhs.uk/Id/ods-organization-code",
                "value": "X24"
              }
            },
            "system": "https://fhir.nhs.uk/Id/nhs-number",
            "type": {
              "coding": [
                {
                  "code": "NH",
                  "system": "http://terminology.hl7.org/CodeSystem/v2-0203"
                }
              ]
            },
            "value": "9737383257"
          },
          "reference": "urn:uuid:2e2e2d28-884f-4950-8a61-b04ee6335ad3"
        }
      }
    },
    {
      "fullUrl": "urn:uuid:9eff77ab-f98f-4c76-9dcd-7f84aeb17371",
      "resource": {
        "resourceType": "Observation",
        "code": {
          "coding": [
            {
              "code": "INTER",
              "display": "INTERPRETATION",
              "system": "L"
            }
          ]
        },
        "effectiveDateTime": "2019-05-14T10:24:17+00:00",
        "identifier": [
          {
            "type": {
              "coding": [
                {
                  "code": "FILL",
                  "system": "http://terminology.hl7.org/CodeSystem/v2-0203"
                }
              ]
            },
            "value": "190000041:27491"
          }
        ],
        "note": [
          {
            "text": "Interpreted by: ACME Super User, Signed on 05/14/2019 at 10:24\\n"
          }
        ],
        "performer": [
          {
            "identifier": {
              "system": "https://fhir.nhs.uk/Id/ods-organization-code",
              "value": "699X0"
            },
            "type": "Organization"
          }
        ],
        "status": "final",
        "subject": {
          "identifier": {
            "assigner": {
              "identifier": {
                "system": "https://fhir.nhs.uk/Id/ods-organization-code",
                "value": "X24"
              }
            },
            "system": "https://fhir.nhs.uk/Id/nhs-number",
            "type": {
              "coding": [
                {
                  "code": "NH",
                  "system": "http://terminology.hl7.org/CodeSystem/v2-0203"
                }
              ]
            },
            "value": "9737383257"
          },
          "reference": "urn:uuid:2e2e2d28-884f-4950-8a61-b04ee6335ad3"
        },
        "valueString": "rwtu"
      }
    },
    {
      "fullUrl": "urn:uuid:f441aed5-9560-4f73-b6f8-75c1375a1d88",
      "resource": {
        "resourceType": "Observation",
        "code": {
          "coding": [
            {
              "code": "RESTE",
              "display": "Reason for testing",
              "system": "L"
            }
          ]
        },
        "effectiveDateTime": "2019-05-14T10:24:17+00:00",
        "identifier": [
          {
            "type": {
              "coding": [
                {
                  "code": "FILL",
                  "system": "http://terminology.hl7.org/CodeSystem/v2-0203"
                }
              ]
            },
            "value": "190000041:27491"
          }
        ],
        "performer": [
          {
            "identifier": {
              "system": "https://fhir.nhs.uk/Id/ods-organization-code",
              "value": "699X0"
            },
            "type": "Organization"
          }
        ],
        "status": "final",
        "subject": {
          "identifier": {
            "assigner": {
              "identifier": {
                "system": "https://fhir.nhs.uk/Id/ods-organization-code",
                "value": "X24"
              }
            },
            "system": "https://fhir.nhs.uk/Id/nhs-number",
            "type": {
              "coding": [
                {
                  "code": "NH",
                  "system": "http://terminology.hl7.org/CodeSystem/v2-0203"
                }
              ]
            },
            "value": "9737383257"
          },
          "reference": "urn:uuid:2e2e2d28-884f-4950-8a61-b04ee6335ad3"
        },
        "valueString": "erw"
      }
    },
    {
      "fullUrl": "urn:uuid:ec75c4fb-d6fb-410f-91d2-4bb5f3eaabee",
      "resource": {
        "resourceType": "Observation",
        "code": {
          "coding": [
            {
              "code": "TMETH",
              "display": "Test Methodology",
              "system": "L"
            }
          ]
        },
        "effectiveDateTime": "2019-05-14T10:24:17+00:00",
        "identifier": [
          {
            "type": {
              "coding": [
                {
                  "code": "FILL",
                  "system": "http://terminology.hl7.org/CodeSystem/v2-0203"
                }
              ]
            },
            "value": "190000041:27491"
          }
        ],
        "performer": [
          {
            "identifier": {
              "system": "https://fhir.nhs.uk/Id/ods-organization-code",
              "value": "699X0"
            },
            "type": "Organization"
          }
        ],
        "status": "final",
        "subject": {
          "identifier": {
            "assigner": {
              "identifier": {
                "system": "https://fhir.nhs.uk/Id/ods-organization-code",
                "value": "X24"
              }
            },
            "system": "https://fhir.nhs.uk/Id/nhs-number",
            "type": {
              "coding": [
                {
                  "code": "NH",
                  "system": "http://terminology.hl7.org/CodeSystem/v2-0203"
                }
              ]
            },
            "value": "9737383257"
          },
          "reference": "urn:uuid:2e2e2d28-884f-4950-8a61-b04ee6335ad3"
        },
        "valueString": "sfjg"
      }
    },
    {
      "fullUrl": "urn:uuid:9fd3b6f6-ac04-4934-ac44-4aa89e91346f",
      "resource": {
        "resourceType": "Observation",
        "code": {
          "coding": [
            {
              "code": "RESUM",
              "display": "Result summary",
              "system": "L"
            }
          ]
        },
        "effectiveDateTime": "2019-05-14T10:24:17+00:00",
        "identifier": [
          {
            "type": {
              "coding": [
                {
                  "code": "FILL",
                  "system": "http://terminology.hl7.org/CodeSystem/v2-0203"
                }
              ]
            },
            "value": "190000041:27491"
          }
        ],
        "performer": [
          {
            "identifier": {
              "system": "https://fhir.nhs.uk/Id/ods-organization-code",
              "value": "699X0"
            },
            "type": "Organization"
          }
        ],
        "status": "final",
        "subject": {
          "identifier": {
            "assigner": {
              "identifier": {
                "system": "https://fhir.nhs.uk/Id/ods-organization-code",
                "value": "X24"
              }
            },
            "system": "https://fhir.nhs.uk/Id/nhs-number",
            "type": {
              "coding": [
                {
                  "code": "NH",
                  "system": "http://terminology.hl7.org/CodeSystem/v2-0203"
                }
              ]
            },
            "value": "9737383257"
          },
          "reference": "urn:uuid:2e2e2d28-884f-4950-8a61-b04ee6335ad3"
        },
        "valueString": "tyityu"
      }
    },
    {
      "fullUrl": "urn:uuid:b4530aed-9864-457a-9278-1ebc4bb29dfd",
      "resource": {
        "resourceType": "Observation",
        "code": {
          "coding": [
            {
              "code": "PATPH",
              "display": "Patient phenotype",
              "system": "L"
            }
          ]
        },
        "effectiveDateTime": "2019-05-14T10:24:17+00:00",
        "identifier": [
          {
            "type": {
              "coding": [
                {
                  "code": "FILL",
                  "system": "http://terminology.hl7.org/CodeSystem/v2-0203"
                }
              ]
            },
            "value": "190000041:27491"
          }
        ],
        "performer": [
          {
            "identifier": {
              "system": "https://fhir.nhs.uk/Id/ods-organization-code",
              "value": "699X0"
            },
            "type": "Organization"
          }
        ],
        "status": "final",
        "subject": {
          "identifier": {
            "assigner": {
              "identifier": {
                "system": "https://fhir.nhs.uk/Id/ods-organization-code",
                "value": "X24"
              }
            },
            "system": "https://fhir.nhs.uk/Id/nhs-number",
            "type": {
              "coding": [
                {
                  "code": "NH",
                  "system": "http://terminology.hl7.org/CodeSystem/v2-0203"
                }
              ]
            },
            "value": "9737383257"
          },
          "reference": "urn:uuid:2e2e2d28-884f-4950-8a61-b04ee6335ad3"
        },
        "valueString": "ghfjg"
      }
    },
    {
      "fullUrl": "urn:uuid:45ca650e-8268-411e-8803-c8b1eda97ee8",
      "resource": {
        "resourceType": "Observation",
        "code": {
          "coding": [
            {
              "code": "FOLL",
              "display": "Follow-up",
              "system": "L"
            }
          ]
        },
        "effectiveDateTime": "2019-05-14T10:24:17+00:00",
        "identifier": [
          {
            "type": {
              "coding": [
                {
                  "code": "FILL",
                  "system": "http://terminology.hl7.org/CodeSystem/v2-0203"
                }
              ]
            },
            "value": "190000041:27491"
          }
        ],
        "performer": [
          {
            "identifier": {
              "system": "https://fhir.nhs.uk/Id/ods-organization-code",
              "value": "699X0"
            },
            "type": "Organization"
          }
        ],
        "status": "final",
        "subject": {
          "identifier": {
            "assigner": {
              "identifier": {
                "system": "https://fhir.nhs.uk/Id/ods-organization-code",
                "value": "X24"
              }
            },
            "system": "https://fhir.nhs.uk/Id/nhs-number",
            "type": {
              "coding": [
                {
                  "code": "NH",
                  "system": "http://terminology.hl7.org/CodeSystem/v2-0203"
                }
              ]
            },
            "value": "9737383257"
          },
          "reference": "urn:uuid:2e2e2d28-884f-4950-8a61-b04ee6335ad3"
        },
        "valueString": "yue"
      }
    },
    {
      "fullUrl": "urn:uuid:1535e3bc-e10b-437a-a72b-27d72a2f96d4",
      "resource": {
        "resourceType": "Binary",
        "contentType": "application/pdf",
        "data": ""
      }
    },
    {
      "fullUrl": "urn:uuid:e8fce349-2cb3-4292-a8bc-915a6d7b031b",
      "resource": {
        "resourceType": "DocumentReference",
        "content": [
          {
            "attachment": {
              "contentType": "application/pdf",
              "url": "urn:uuid:1535e3bc-e10b-437a-a72b-27d72a2f96d4"
            }
          }
        ],
        "context": {
          "period": {
            "end": "2019-05-14T10:24:17+00:00",
            "start": "2019-05-14T10:24:17+00:00"
          },
          "related": [
            {
              "identifier": {
                "type": {
                  "coding": [
                    {
                      "code": "FILL",
                      "system": "http://terminology.hl7.org/CodeSystem/v2-0203"
                    }
                  ]
                },
                "value": "190000041:27491"
              },
              "reference": "urn:uuid:ee8fda87-91fc-4107-9d99-092f88dae416",
              "type": "DiagnosticReport"
            }
          ]
        },
        "custodian": {
          "identifier": {
            "system": "https://fhir.nhs.uk/Id/ods-organization-code",
            "value": "699X0"
          },
          "type": "Organization"
        },
        "date": "2019-05-14T10:24:17+00:00",
        "identifier": [
          {
            "type": {
              "coding": [
                {
                  "code": "FILL",
                  "system": "http://terminology.hl7.org/CodeSystem/v2-0203"
                }
              ]
            },
            "value": "190000041:27491"
          }
        ],
        "status": "current",
        "subject": {
          "identifier": {
            "assigner": {
              "identifier": {
                "system": "https://fhir.nhs.uk/Id/ods-organization-code",
                "value": "X24"
              }
            },
            "system": "https://fhir.nhs.uk/Id/nhs-number",
            "type": {
              "coding": [
                {
                  "code": "NH",
                  "system": "http://terminology.hl7.org/CodeSystem/v2-0203"
                }
              ]
            },
            "value": "9737383257"
          },
          "reference": "urn:uuid:2e2e2d28-884f-4950-8a61-b04ee6335ad3"
        },
        "type": {
          "coding": [
            {
              "code": "823781000000108",
              "display": "MDT (multidisciplinary team) letter",
              "system": "http://snomed.info/sct"
            }
          ]
        }
      }
    },
    {
      "fullUrl": "urn:uuid:85c76573-4897-4409-8744-880abdea64da",
      "resource": {
        "resourceType": "Observation",
        "code": {
          "coding": [
            {
              "code": "RESLT",
              "display": "Result",
              "system": "L"
            }
          ]
        },
        "effectiveDateTime": "2019-05-14T10:24:17+00:00",
        "identifier": [
          {
            "type": {
              "coding": [
                {
                  "code": "FILL",
                  "system": "http://terminology.hl7.org/CodeSystem/v2-0203"
                }
              ]
            },
            "value": "190000041:27491"
          }
        ],
        "performer": [
          {
            "identifier": {
              "system": "https://fhir.nhs.uk/Id/ods-organization-code",
              "value": "699X0"
            },
            "type": "Organization"
          }
        ],
        "status": "final",
        "subject": {
          "identifier": {
            "assigner": {
              "identifier": {
                "system": "https://fhir.nhs.uk/Id/ods-organization-code",
                "value": "X24"
              }
            },
            "system": "https://fhir.nhs.uk/Id/nhs-number",
            "type": {
              "coding": [
                {
                  "code": "NH",
                  "system": "http://terminology.hl7.org/CodeSystem/v2-0203"
                }
              ]
            },
            "value": "9737383257"
          },
          "reference": "urn:uuid:2e2e2d28-884f-4950-8a61-b04ee6335ad3"
        },
        "valueString": "dhjhd"
      }
    },
    {
      "fullUrl": "urn:uuid:144f2efc-233f-465e-ab4a-655a88760826",
      "resource": {
        "resourceType": "Observation",
        "code": {
          "coding": [
            {
              "code": "GRFALN1",
              "display": "AlphaNumeric Generic Result Field 1",
              "system": "L"
            }
          ]
        },
        "effectiveDateTime": "2019-05-14T10:23:35+00:00",
        "identifier": [
          {
            "type": {
              "coding": [
                {
                  "code": "FILL",
                  "system": "http://terminology.hl7.org/CodeSystem/v2-0203"
                }
              ]
            },
            "value": "190000041:27491"
          }
        ],
        "performer": [
          {
            "identifier": {
              "system": "https://fhir.nhs.uk/Id/ods-organization-code",
              "value": "699X0"
            },
            "type": "Organization"
          }
        ],
        "status": "final",
        "subject": {
          "identifier": {
            "assigner": {
              "identifier": {
                "system": "https://fhir.nhs.uk/Id/ods-organization-code",
                "value": "X24"
              }
            },
            "system": "https://fhir.nhs.uk/Id/nhs-number",
            "type": {
              "coding": [
                {
                  "code": "NH",
                  "system": "http://terminology.hl7.org/CodeSystem/v2-0203"
                }
              ]
            },
            "value": "9737383257"
          },
          "reference": "urn:uuid:2e2e2d28-884f-4950-8a61-b04ee6335ad3"
        },
        "valueString": "234dfsgsg"
      }
    },
    {
      "fullUrl": "urn:uuid:4733a7aa-918d-4616-acd8-b9c7c1443f3a",
      "resource": {
        "resourceType": "Binary",
        "contentType": "application/pdf",
        "data": "JVBERi0xLjMKJeLjz9MKMiAwIG9iago8PC..."
      }
    },
    {
      "fullUrl": "urn:uuid:e6263a10-b713-4af1-9707-fc921ede2c67",
      "resource": {
        "resourceType": "DocumentReference",
        "content": [
          {
            "attachment": {
              "contentType": "application/pdf",
              "url": "urn:uuid:4733a7aa-918d-4616-acd8-b9c7c1443f3a"
            }
          }
        ],
        "context": {
          "period": {
            "end": "2019-05-14T10:23:35+00:00",
            "start": "2019-05-14T10:23:35+00:00"
          },
          "related": [
            {
              "identifier": {
                "type": {
                  "coding": [
                    {
                      "code": "FILL",
                      "system": "http://terminology.hl7.org/CodeSystem/v2-0203"
                    }
                  ]
                },
                "value": "190000041:27491"
              },
              "reference": "urn:uuid:ee8fda87-91fc-4107-9d99-092f88dae416",
              "type": "DiagnosticReport"
            }
          ]
        },
        "custodian": {
          "identifier": {
            "system": "https://fhir.nhs.uk/Id/ods-organization-code",
            "value": "699X0"
          },
          "type": "Organization"
        },
        "date": "2019-05-14T10:23:35+00:00",
        "identifier": [
          {
            "type": {
              "coding": [
                {
                  "code": "FILL",
                  "system": "http://terminology.hl7.org/CodeSystem/v2-0203"
                }
              ]
            },
            "value": "190000041:27491"
          }
        ],
        "status": "current",
        "subject": {
          "identifier": {
            "assigner": {
              "identifier": {
                "system": "https://fhir.nhs.uk/Id/ods-organization-code",
                "value": "X24"
              }
            },
            "system": "https://fhir.nhs.uk/Id/nhs-number",
            "type": {
              "coding": [
                {
                  "code": "NH",
                  "system": "http://terminology.hl7.org/CodeSystem/v2-0203"
                }
              ]
            },
            "value": "9737383257"
          },
          "reference": "urn:uuid:2e2e2d28-884f-4950-8a61-b04ee6335ad3"
        },
        "type": {
          "coding": [
            {
              "code": "MOLT",
              "display": "MOL TEST NAME",
              "system": "L"
            }
          ]
        }
      }
    },
    {
      "fullUrl": "urn:uuid:fde13662-b78b-4106-87e4-411a3643af48",
      "resource": {
        "resourceType": "DocumentReference",
        "content": [
          {
            "attachment": {
              "url": "http://documents.example.com/document123.pdf"
            }
          }
        ],
        "context": {
          "period": {
            "end": "2019-05-14T10:23:35+00:00",
            "start": "2019-05-14T10:23:35+00:00"
          },
          "related": [
            {
              "identifier": {
                "type": {
                  "coding": [
                    {
                      "code": "FILL",
                      "system": "http://terminology.hl7.org/CodeSystem/v2-0203"
                    }
                  ]
                },
                "value": "190000041:27491"
              },
              "reference": "urn:uuid:ee8fda87-91fc-4107-9d99-092f88dae416",
              "type": "DiagnosticReport"
            }
          ]
        },
        "custodian": {
          "identifier": {
            "system": "https://fhir.nhs.uk/Id/ods-organization-code",
            "value": "699X0"
          },
          "type": "Organization"
        },
        "date": "2019-05-14T10:23:35+00:00",
        "identifier": [
          {
            "type": {
              "coding": [
                {
                  "code": "FILL",
                  "system": "http://terminology.hl7.org/CodeSystem/v2-0203"
                }
              ]
            },
            "value": "190000041:27491"
          }
        ],
        "status": "current",
        "subject": {
          "identifier": {
            "assigner": {
              "identifier": {
                "system": "https://fhir.nhs.uk/Id/ods-organization-code",
                "value": "X24"
              }
            },
            "system": "https://fhir.nhs.uk/Id/nhs-number",
            "type": {
              "coding": [
                {
                  "code": "NH",
                  "system": "http://terminology.hl7.org/CodeSystem/v2-0203"
                }
              ]
            },
            "value": "9737383257"
          },
          "reference": "urn:uuid:2e2e2d28-884f-4950-8a61-b04ee6335ad3"
        },
        "type": {
          "coding": [
            {
              "code": "MOLT",
              "display": "MOL TEST NAME",
              "system": "L"
            }
          ]
        }
      }
    },
    {
      "fullUrl": "urn:uuid:857b8f3c-710f-43ad-8331-515455911c85",
      "resource": {
        "resourceType": "Specimen",
        "identifier": [
          {
            "type": {
              "coding": [
                {
                  "code": "PLAC",
                  "system": "http://terminology.hl7.org/CodeSystem/v2-0203"
                }
              ]
            },
            "value": "190000041:27491"
          }
        ],
        "receivedTime": "2019-05-14T10:20:00+00:00",
        "status": "unavailable",
        "subject": {
          "identifier": {
            "assigner": {
              "identifier": {
                "system": "https://fhir.nhs.uk/Id/ods-organization-code",
                "value": "X24"
              }
            },
            "system": "https://fhir.nhs.uk/Id/nhs-number",
            "type": {
              "coding": [
                {
                  "code": "NH",
                  "system": "http://terminology.hl7.org/CodeSystem/v2-0203"
                }
              ]
            },
            "value": "9737383257"
          },
          "reference": "urn:uuid:2e2e2d28-884f-4950-8a61-b04ee6335ad3"
        }
      }
    },
    {
      "fullUrl": "urn:uuid:ee8fda87-91fc-4107-9d99-092f88dae416",
      "resource": {
        "resourceType": "DiagnosticReport",
        "category": [
          {
            "coding": [
              {
                "code": "GE",
                "system": "http://terminology.hl7.org/CodeSystem/v2-0074"
              }
            ]
          }
        ],
        "code": {
          "coding": [
            {
              "code": "MOLT",
              "display": "MOL TEST NAME",
              "system": "L"
            }
          ]
        },
        "effectiveDateTime": "2019-05-14T10:20:00+00:00",
        "identifier": [
          {
            "type": {
              "coding": [
                {
                  "code": "FILL",
                  "system": "http://terminology.hl7.org/CodeSystem/v2-0203"
                }
              ]
            },
            "value": "190000041:27491"
          }
        ],
        "issued": "2019-05-14T10:24:17+00:00",
        "performer": [
          {
            "extension": [
              {
                "url": "http://hl7.org/fhir/StructureDefinition/event-performerFunction",
                "valueCodeableConcept": {
                  "coding": [
                    {
                      "code": "SPRF",
                      "system": "http://terminology.hl7.org/CodeSystem/v3-ParticipationType"
                    }
                  ]
                }
              }
            ]
          },
          {
            "display": "NHS North West Genomics",
            "identifier": {
              "system": "https://fhir.nhs.uk/Id/ods-organization-code",
              "value": "699X0"
            },
            "type": "Organization"
          }
        ],
        "result": [
          {
            "display": "INTERPRETATION",
            "reference": "urn:uuid:9eff77ab-f98f-4c76-9dcd-7f84aeb17371",
            "type": "Observation"
          },
          {
            "display": "Reason for testing",
            "reference": "urn:uuid:f441aed5-9560-4f73-b6f8-75c1375a1d88",
            "type": "Observation"
          },
          {
            "display": "Test Methodology",
            "reference": "urn:uuid:ec75c4fb-d6fb-410f-91d2-4bb5f3eaabee",
            "type": "Observation"
          },
          {
            "display": "Result summary",
            "reference": "urn:uuid:9fd3b6f6-ac04-4934-ac44-4aa89e91346f",
            "type": "Observation"
          },
          {
            "display": "Patient phenotype",
            "reference": "urn:uuid:b4530aed-9864-457a-9278-1ebc4bb29dfd",
            "type": "Observation"
          },
          {
            "display": "Follow-up",
            "reference": "urn:uuid:45ca650e-8268-411e-8803-c8b1eda97ee8",
            "type": "Observation"
          },
          {
            "display": "Result",
            "reference": "urn:uuid:85c76573-4897-4409-8744-880abdea64da",
            "type": "Observation"
          },
          {
            "display": "AlphaNumeric Generic Result Field 1",
            "reference": "urn:uuid:144f2efc-233f-465e-ab4a-655a88760826",
            "type": "Observation"
          }
        ],
        "specimen": [
          {
            "reference": "urn:uuid:857b8f3c-710f-43ad-8331-515455911c85",
            "type": "Specimen"
          }
        ],
        "status": "final",
        "subject": {
          "identifier": {
            "assigner": {
              "identifier": {
                "system": "https://fhir.nhs.uk/Id/ods-organization-code",
                "value": "X24"
              }
            },
            "system": "https://fhir.nhs.uk/Id/nhs-number",
            "type": {
              "coding": [
                {
                  "code": "NH",
                  "system": "http://terminology.hl7.org/CodeSystem/v2-0203"
                }
              ]
            },
            "value": "9737383257"
          },
          "reference": "urn:uuid:2e2e2d28-884f-4950-8a61-b04ee6335ad3"
        }
      }
    }
  ],
  "identifier": {
    "value": "5051095-201905141025"
  },
  "timestamp": "2019-05-14T10:25:27+00:00",
  "type": "message"
}