{
  "resourceType": "Bundle",
  "entry": [
    {
      "fullUrl": "urn:uuid:5ce9db81-ef54-4687-be41-b97dd074c392",
      "resource": {
        "resourceType": "MessageHeader",
        "destination": [
          {
            "endpoint": "https//fhir.mft.nhs.uk/Endpoint/cymru.nhs.uk",
            "receiver": {
              "identifier": {
                "system": "https://fhir.nhs.uk/Id/ods-organization-code",
                "value": "NHSWales"
              }
            }
          }
        ],
        "eventCoding": {
          "code": "R01",
          "system": "http://terminology.hl7.org/CodeSystem/v2-0003"
        },
        "focus": [
          {
            "reference": "urn:uuid:33df11ed-509f-47fa-926c-b4e72ef35a32"
          },
          {
            "reference": "urn:uuid:63057887-de40-45d1-9101-02664f22e7fc"
          },
          {
            "reference": "urn:uuid:d9b53dc7-968e-4606-be24-4f9ad4113c21"
          },
          {
            "reference": "urn:uuid:959ec40c-f44e-4d17-bba1-6029f882f086"
          },
          {
            "reference": "urn:uuid:dd474906-fc18-4f6f-82c0-4c4e27498997"
          }
        ],
        "sender": {
          "identifier": {
            "system": "https://fhir.nhs.uk/Id/ods-organization-code",
            "value": "CAV"
          }
        },
        "source": {
          "endpoint": "https://fhir.nwgenomics.nhs.uk/Endpoint/ACMELab",
          "software": "NW GLH"
        }
      }
    },
    {
      "fullUrl": "urn:uuid:b035ad40-9da8-4dd2-8c81-409db0310447",
      "resource": {
        "resourceType": "Patient",
        "address": [
          {
            "city": "Baglan",
            "district": "Neath port talbot",
            "line": [
              "A B M U Health Board",
              "One Talbot Gateway"
            ],
            "postalCode": "SA12 7BR"
          }
        ],
        "birthDate": "1999-10-13",
        "gender": "male",
        "identifier": [
          {
            "assigner": {
              "identifier": {
                "system": "https://fhir.nhs.uk/Id/ods-organization-code",
                "value": "7A4"
              }
            },
            "type": {
              "coding": [
                {
                  "code": "PI",
                  "system": "http://terminology.hl7.org/CodeSystem/v2-0203"
                }
              ]
            },
            "value": "403281375"
          },
          {
            "assigner": {
              "identifier": {
                "system": "https://fhir.nhs.uk/Id/ods-organization-code",
                "value": "X24"
              }
            },
            "system": "https://fhir.nhs.uk/Id/nhs-number",
            "type": {
              "coding": [
                {
                  "code": "NH",
                  "system": "http://terminology.hl7.org/CodeSystem/v2-0203"
                }
              ]
            },
            "value": "9737383257"
          }
        ],
        "name": [
          {
            "family": "WREXHAM",
            "given": [
              "Myrcella"
            ],
            "prefix": [
              "Mr"
            ]
          }
        ]
      }
    },
    {
      "fullUrl": "urn:uuid:2966bcc6-f48c-45eb-8b82-269b852b35b8",
      "resource": {
        "resourceType": "Observation",
        "code": {
          "coding": [
            {
              "code": "B3553",
              "display": "HbA1c (IFCC traceable)"
            }
          ]
        },
        "effectiveDateTime": "2018-03-09T15:00:00+00:00",
        "identifier": [
          {
            "type": {
              "coding": [
                {
                  "code": "FILL",
                  "system": "http://terminology.hl7.org/CodeSystem/v2-0203"
                }
              ]
            },
            "value": "914694928301"
          }
        ],
        "performer": [
          {
            "identifier": {
              "system": "https://fhir.nhs.uk/Id/ods-organization-code",
              "value": "699X0"
            },
            "type": "Organization"
          }
        ],
        "referenceRange": [
          {
            "text": "<48"
          }
        ],
        "status": "final",
        "subject": {
          "identifier": {
            "assigner": {
              "identifier": {
                "system": "https://fhir.nhs.uk/Id/ods-organization-code",
                "value": "X24"
              }
            },
            "system": "https://fhir.nhs.uk/Id/nhs-number",
            "type": {
              "coding": [
                {
                  "code": "NH",
                  "system": "http://terminology.hl7.org/CodeSystem/v2-0203"
                }
              ]
            },
            "value": "9737383257"
          },
          "reference": "urn:uuid:b035ad40-9da8-4dd2-8c81-409db0310447"
        },
        "valueQuantity": {
          "system": "http://unitsofmeasure.org",
          "unit": "mmol/mol",
          "value": 49
        }
      }
    },
    {
      "fullUrl": "urn:uuid:3ef4f85f-8ce3-42d3-ba31-9283d72d1edd",
      "resource": {
        "resourceType": "Specimen",
        "identifier": [
          {
            "type": {
              "coding": [
                {
                  "code": "PLAC",
                  "system": "http://terminology.hl7.org/CodeSystem/v2-0203"
                }
              ]
            },
            "value": "914694928301"
          }
        ],
        "receivedTime": "2018-03-09T15:00:00+00:00",
        "status": "unavailable",
        "subject": {
          "identifier": {
            "assigner": {
              "identifier": {
                "system": "https://fhir.nhs.uk/Id/ods-organization-code",
                "value": "X24"
              }
            },
            "system": "https://fhir.nhs.uk/Id/nhs-number",
            "type": {
              "coding": [
                {
                  "code": "NH",
                  "system": "http://terminology.hl7.org/CodeSystem/v2-0203"
                }
              ]
            },
            "value": "9737383257"
          },
          "reference": "urn:uuid:b035ad40-9da8-4dd2-8c81-409db0310447"
        }
      }
    },
    {
      "fullUrl": "urn:uuid:7c2e353a-b3ff-48c8-8470-d030a2734bd8",
      "resource": {
        "resourceType": "ServiceRequest",
        "category": [
          {
            "coding": [
              {
                "code": "116148004",
                "system": "http://snomed.info/sct"
              }
            ]
          }
        ],
        "code": {
          "coding": [
            {
              "code": "B3051",
              "display": "HbA1c (IFCC traceable)"
            }
          ]
        },
        "identifier": [
          {
            "type": {
              "coding": [
                {
                  "code": "FILL",
                  "system": "http://terminology.hl7.org/CodeSystem/v2-0203"
                }
              ]
            },
            "value": "914694928301"
          }
        ],
        "intent": "order",
        "specimen": [
          {
            "reference": "urn:uuid:3ef4f85f-8ce3-42d3-ba31-9283d72d1edd",
            "type": "Specimen"
          }
        ],
        "status": "completed",
        "subject": {
          "identifier": {
            "assigner": {
              "identifier": {
                "system": "https://fhir.nhs.uk/Id/ods-organization-code",
                "value": "X24"
              }
            },
            "system": "https://fhir.nhs.uk/Id/nhs-number",
            "type": {
              "coding": [
                {
                  "code": "NH",
                  "system": "http://terminology.hl7.org/CodeSystem/v2-0203"
                }
              ]
            },
            "value": "9737383257"
          },
          "reference": "urn:uuid:b035ad40-9da8-4dd2-8c81-409db0310447"
        }
      }
    },
    {
      "fullUrl": "urn:uuid:33df11ed-509f-47fa-926c-b4e72ef35a32",
      "resource": {
        "resourceType": "DiagnosticReport",
        "basedOn": [
          {
            "identifier": {
              "type": {
                "coding": [
                  {
                    "code": "FILL",
                    "system": "http://terminology.hl7.org/CodeSystem/v2-0203"
                  }
                ]
              },
              "value": "914694928301"
            },
            "reference": "urn:uuid:7c2e353a-b3ff-48c8-8470-d030a2734bd8",
            "type": "ServiceRequest"
          }
        ],
        "category": [
          {
            "coding": [
              {
                "code": "GE",
                "system": "http://terminology.hl7.org/CodeSystem/v2-0074"
              }
            ]
          }
        ],
        "code": {
          "coding": [
            {
              "code": "B3051",
              "display": "HbA1c (IFCC traceable)"
            }
          ]
        },
        "effectiveDateTime": "2018-03-09T15:00:00+00:00",
        "identifier": [
          {
            "type": {
              "coding": [
                {
                  "code": "FILL",
                  "system": "http://terminology.hl7.org/CodeSystem/v2-0203"
                }
              ]
            },
            "value": "914694928301"
          }
        ],
        "issued": "2018-03-09T15:00:00+00:00",
        "performer": [
          {
            "display": "NHS North West Genomics",
            "identifier": {
              "system": "https://fhir.nhs.uk/Id/ods-organization-code",
              "value": "699X0"
            },
            "type": "Organization"
          }
        ],
        "result": [
          {
            "display": "HbA1c (IFCC traceable)",
            "reference": "urn:uuid:2966bcc6-f48c-45eb-8b82-269b852b35b8",
            "type": "Observation"
          }
        ],
        "specimen": [
          {
            "reference": "urn:uuid:3ef4f85f-8ce3-42d3-ba31-9283d72d1edd",
            "type": "Specimen"
          }
        ],
        "status": "final",
        "subject": {
          "identifier": {
            "assigner": {
              "identifier": {
                "system": "https://fhir.nhs.uk/Id/ods-organization-code",
                "value": "X24"
              }
            },
            "system": "https://fhir.nhs.uk/Id/nhs-number",
            "type": {
              "coding": [
                {
                  "code": "NH",
                  "system": "http://terminology.hl7.org/CodeSystem/v2-0203"
                }
              ]
            },
            "value": "9737383257"
          },
          "reference": "urn:uuid:b035ad40-9da8-4dd2-8c81-409db0310447"
        }
      }
    },
    {
      "fullUrl": "urn:uuid:47134d2c-7bf8-4777-ac1c-b84e8fa5f925",
      "resource": {
        "resourceType": "Observation",
        "code": {
          "coding": [
            {
              "code": "B0300",
              "display": "White blood cell (WBC) count"
            }
          ]
        },
        "effectiveDateTime": "2018-03-09T15:00:00+00:00",
        "identifier": [
          {
            "type": {
              "coding": [
                {
                  "code": "FILL",
                  "system": "http://terminology.hl7.org/CodeSystem/v2-0203"
                }
              ]
            },
            "value": "914694928301"
          }
        ],
        "performer": [
          {
            "identifier": {
              "system": "https://fhir.nhs.uk/Id/ods-organization-code",
              "value": "699X0"
            },
            "type": "Organization"
          }
        ],
        "referenceRange": [
          {
            "text": "4.0-11.0"
          }
        ],
        "status": "final",
        "subject": {
          "identifier": {
            "assigner": {
              "identifier": {
                "system": "https://fhir.nhs.uk/Id/ods-organization-code",
                "value": "X24"
              }
            },
            "system": "https://fhir.nhs.uk/Id/nhs-number",
            "type": {
              "coding": [
                {
                  "code": "NH",
                  "system": "http://terminology.hl7.org/CodeSystem/v2-0203"
                }
              ]
            },
            "value": "9737383257"
          },
          "reference": "urn:uuid:b035ad40-9da8-4dd2-8c81-409db0310447"
        },
        "valueQuantity": {
          "system": "http://unitsofmeasure.org",
          "unit": "x10\\S\\9/L",
          "value": 3.5
        }
      }
    },
    {
      "fullUrl": "urn:uuid:50f3fd2b-f1ea-4287-aea5-2ef36662a2b8",
      "resource": {
        "resourceType": "Observation",
        "code": {
          "coding": [
            {
              "code": "B0307",
              "display": "Haemoglobin (Hb)"
            }
          ]
        },
        "effectiveDateTime": "2018-03-09T15:00:00+00:00",
        "identifier": [
          {
            "type": {
              "coding": [
                {
                  "code": "FILL",
                  "system": "http://terminology.hl7.org/CodeSystem/v2-0203"
                }
              ]
            },
            "value": "914694928301"
          }
        ],
        "performer": [
          {
            "identifier": {
              "system": "https://fhir.nhs.uk/Id/ods-organization-code",
              "value": "699X0"
            },
            "type": "Organization"
          }
        ],
        "referenceRange": [
          {
            "text": "130-180"
          }
        ],
        "status": "final",
        "subject": {
          "identifier": {
            "assigner": {
              "identifier": {
                "system": "https://fhir.nhs.uk/Id/ods-organization-code",
                "value": "X24"
              }
            },
            "system": "https://fhir.nhs.uk/Id/nhs-number",
            "type": {
              "coding": [
                {
                  "code": "NH",
                  "system": "http://terminology.hl7.org/CodeSystem/v2-0203"
                }
              ]
            },
            "value": "9737383257"
          },
          "reference": "urn:uuid:b035ad40-9da8-4dd2-8c81-409db0310447"
        },
        "valueQuantity": {
          "comparator": "<",
          "system": "http://unitsofmeasure.org",
          "unit": "g/L",
          "value": 149
        }
      }
    },
    {
      "fullUrl": "urn:uuid:4c2d702b-4506-4029-b259-0da06ac8bd56",
      "resource": {
        "resourceType": "Observation",
        "code": {
          "coding": [
            {
              "code": "B0314",
              "display": "Platelet (PLT) count"
            }
          ]
        },
        "effectiveDateTime": "2018-03-09T15:00:00+00:00",
        "identifier": [
          {
            "type": {
              "coding": [
                {
                  "code": "FILL",
                  "system": "http://terminology.hl7.org/CodeSystem/v2-0203"
                }
              ]
            },
            "value": "914694928301"
          }
        ],
        "performer": [
          {
            "identifier": {
              "system": "https://fhir.nhs.uk/Id/ods-organization-code",
              "value": "699X0"
            },
            "type": "Organization"
          }
        ],
        "referenceRange": [
          {
            "text": "150-400"
          }
        ],
        "status": "final",
        "subject": {
          "identifier": {
            "assigner": {
              "identifier": {
                "system": "https://fhir.nhs.uk/Id/ods-organization-code",
                "value": "X24"
              }
            },
            "system": "https://fhir.nhs.uk/Id/nhs-number",
            "type": {
              "coding": [
                {
                  "code": "NH",
                  "system": "http://terminology.hl7.org/CodeSystem/v2-0203"
                }
              ]
            },
            "value": "9737383257"
          },
          "reference": "urn:uuid:b035ad40-9da8-4dd2-8c81-409db0310447"
        },
        "valueQuantity": {
          "system": "http://unitsofmeasure.org",
          "unit": "x10\\S\\9/L",
          "value": 500
        }
      }
    },
    {
      "fullUrl": "urn:uuid:41e728ed-ed8a-44d4-9dfe-fb05978588a0",
      "resource": {
        "resourceType": "Observation",
        "code": {
          "coding": [
            {
              "code": "B0306",
              "display": "Red blood cell (RBC) count"
            }
          ]
        },
        "effectiveDateTime": "2018-03-09T15:00:00+00:00",
        "identifier": [
          {
            "type": {
              "coding": [
                {
                  "code": "FILL",
                  "system": "http://terminology.hl7.org/CodeSystem/v2-0203"
                }
              ]
            },
            "value": "914694928301"
          }
        ],
        "performer": [
          {
            "identifier": {
              "system": "https://fhir.nhs.uk/Id/ods-organization-code",
              "value": "699X0"
            },
            "type": "Organization"
          }
        ],
        "referenceRange": [
          {
            "text": "4.50-6.00"
          }
        ],
        "status": "final",
        "subject": {
          "identifier": {
            "assigner": {
              "identifier": {
                "system": "https://fhir.nhs.uk/Id/ods-organization-code",
                "value": "X24"
              }
            },
            "system": "https://fhir.nhs.uk/Id/nhs-number",
            "type": {
              "coding": [
                {
                  "code": "NH",
                  "system": "http://terminology.hl7.org/CodeSystem/v2-0203"
                }
              ]
            },
            "value": "9737383257"
          },
          "reference": "urn:uuid:b035ad40-9da8-4dd2-8c81-409db0310447"
        },
        "valueQuantity": {
          "system": "http://unitsofmeasure.org",
          "unit": "x10\\S\\12/L",
          "value": 6.00
        }
      }
    },
    {
      "fullUrl": "urn:uuid:8d962034-23cf-479c-b51b-84b0a9fac87a",
      "resource": {
        "resourceType": "Observation",
        "code": {
          "coding": [
            {
              "code": "B0309",
              "display": "Mean cell volume (MCV)"
            }
          ]
        },
        "effectiveDateTime": "2018-03-09T15:00:00+00:00",
        "identifier": [
          {
            "type": {
              "coding": [
                {
                  "code": "FILL",
                  "system": "http://terminology.hl7.org/CodeSystem/v2-0203"
                }
              ]
            },
            "value": "914694928301"
          }
        ],
        "performer": [
          {
            "identifier": {
              "system": "https://fhir.nhs.uk/Id/ods-organization-code",
              "value": "699X0"
            },
            "type": "Organization"
          }
        ],
        "referenceRange": [
          {
            "text": "80-100"
          }
        ],
        "status": "final",
        "subject": {
          "identifier": {
            "assigner": {
              "identifier": {
                "system": "https://fhir.nhs.uk/Id/ods-organization-code",
                "value": "X24"
              }
            },
            "system": "https://fhir.nhs.uk/Id/nhs-number",
            "type": {
              "coding": [
                {
                  "code": "NH",
                  "system": "http://terminology.hl7.org/CodeSystem/v2-0203"
                }
              ]
            },
            "value": "9737383257"
          },
          "reference": "urn:uuid:b035ad40-9da8-4dd2-8c81-409db0310447"
        },
        "valueCodeableConcept": {
          "coding": [
            {
              "code": "NA",
              "display": "Not assayed",
              "system": "ACME"
            }
          ]
        }
      }
    },
    {
      "fullUrl": "urn:uuid:bfadcebd-8a7a-4f12-a464-c0813b38e344",
      "resource": {
        "resourceType": "Specimen",
        "collection": {
          "collectedDateTime": "2018-03-09T14:00:00+00:00"
        },
        "identifier": [
          {
            "type": {
              "coding": [
                {
                  "code": "FILL",
                  "system": "http://terminology.hl7.org/CodeSystem/v2-0203"
                }
              ]
            },
            "value": "9146949283"
          }
        ],
        "receivedTime": "2018-03-09T15:00:00+00:00",
        "status": "unavailable",
        "subject": {
          "identifier": {
            "assigner": {
              "identifier": {
                "system": "https://fhir.nhs.uk/Id/ods-organization-code",
                "value": "X24"
              }
            },
            "system": "https://fhir.nhs.uk/Id/nhs-number",
            "type": {
              "coding": [
                {
                  "code": "NH",
                  "system": "http://terminology.hl7.org/CodeSystem/v2-0203"
                }
              ]
            },
            "value": "9737383257"
          },
          "reference": "urn:uuid:b035ad40-9da8-4dd2-8c81-409db0310447"
        },
        "type": {
          "coding": [
            {
              "code": "BLOO",
              "display": "Blood",
              "system": "ACME"
            }
          ]
        }
      }
    },
    {
      "fullUrl": "urn:uuid:63057887-de40-45d1-9101-02664f22e7fc",
      "resource": {
        "resourceType": "DiagnosticReport",
        "category": [
          {
            "coding": [
              {
                "code": "GE",
                "system": "http://terminology.hl7.org/CodeSystem/v2-0074"
              }
            ]
          }
        ],
        "code": {
          "coding": [
            {
              "code": "B0001",
              "display": "Full blood count"
            }
          ]
        },
        "effectiveDateTime": "2018-03-09T15:00:00+00:00",
        "identifier": [
          {
            "type": {
              "coding": [
                {
                  "code": "FILL",
                  "system": "http://terminology.hl7.org/CodeSystem/v2-0203"
                }
              ]
            },
            "value": "914694928301"
          }
        ],
        "issued": "2018-03-09T15:00:00+00:00",
        "performer": [
          {
            "display": "NHS North West Genomics",
            "identifier": {
              "system": "https://fhir.nhs.uk/Id/ods-organization-code",
              "value": "699X0"
            },
            "type": "Organization"
          }
        ],
        "result": [
          {
            "display": "White blood cell (WBC) count",
            "reference": "urn:uuid:47134d2c-7bf8-4777-ac1c-b84e8fa5f925",
            "type": "Observation"
          },
          {
            "display": "Haemoglobin (Hb)",
            "reference": "urn:uuid:50f3fd2b-f1ea-4287-aea5-2ef36662a2b8",
            "type": "Observation"
          },
          {
            "display": "Platelet (PLT) count",
            "reference": "urn:uuid:4c2d702b-4506-4029-b259-0da06ac8bd56",
            "type": "Observation"
          },
          {
            "display": "Red blood cell (RBC) count",
            "reference": "urn:uuid:41e728ed-ed8a-44d4-9dfe-fb05978588a0",
            "type": "Observation"
          },
          {
            "display": "Mean cell volume (MCV)",
            "reference": "urn:uuid:8d962034-23cf-479c-b51b-84b0a9fac87a",
            "type": "Observation"
          }
        ],
        "specimen": [
          {
            "reference": "urn:uuid:bfadcebd-8a7a-4f12-a464-c0813b38e344",
            "type": "Specimen"
          }
        ],
        "status": "final",
        "subject": {
          "identifier": {
            "assigner": {
              "identifier": {
                "system": "https://fhir.nhs.uk/Id/ods-organization-code",
                "value": "X24"
              }
            },
            "system": "https://fhir.nhs.uk/Id/nhs-number",
            "type": {
              "coding": [
                {
                  "code": "NH",
                  "system": "http://terminology.hl7.org/CodeSystem/v2-0203"
                }
              ]
            },
            "value": "9737383257"
          },
          "reference": "urn:uuid:b035ad40-9da8-4dd2-8c81-409db0310447"
        }
      }
    },
    {
      "fullUrl": "urn:uuid:c2620e08-2497-4ae5-ae61-09d121b14814",
      "resource": {
        "resourceType": "Binary",
        "contentType": "application/pdf",
        "data": "JVBERi0xLjQKJcOkw7zDtsOfCjIgMCBvYmoKPDw...EyNDk0IDAwMDAwIG4gCnRyYWlsZXIKPDwvU2l6ZS"
      }
    },
    {
      "fullUrl": "urn:uuid:2a2046f2-cc63-482e-9b8a-ae7bef8e2b18",
      "resource": {
        "resourceType": "DocumentReference",
        "content": [
          {
            "attachment": {
              "contentType": "application/pdf",
              "url": "urn:uuid:c2620e08-2497-4ae5-ae61-09d121b14814"
            }
          }
        ],
        "context": {
          "period": {
            "end": "2018-11-09T12:38:51+00:00",
            "start": "2018-11-09T12:38:51+00:00"
          },
          "related": [
            {
              "identifier": {
                "assigner": {
                  "identifier": {
                    "system": "https://fhir.nhs.uk/Id/ods-organization-code",
                    "value": "7A4BV"
                  }
                },
                "type": {
                  "coding": [
                    {
                      "code": "FILL",
                      "system": "http://terminology.hl7.org/CodeSystem/v2-0203"
                    }
                  ]
                },
                "value": "287018"
              },
              "reference": "urn:uuid:d9b53dc7-968e-4606-be24-4f9ad4113c21",
              "type": "DiagnosticReport"
            }
          ]
        },
        "custodian": {
          "identifier": {
            "system": "https://fhir.nhs.uk/Id/ods-organization-code",
            "value": "699X0"
          },
          "type": "Organization"
        },
        "date": "2018-11-09T12:38:51+00:00",
        "identifier": [
          {
            "assigner": {
              "identifier": {
                "system": "https://fhir.nhs.uk/Id/ods-organization-code",
                "value": "7A4BV"
              }
            },
            "type": {
              "coding": [
                {
                  "code": "FILL",
                  "system": "http://terminology.hl7.org/CodeSystem/v2-0203"
                }
              ]
            },
            "value": "287018"
          }
        ],
        "status": "current",
        "subject": {
          "identifier": {
            "assigner": {
              "identifier": {
                "system": "https://fhir.nhs.uk/Id/ods-organization-code",
                "value": "X24"
              }
            },
            "system": "https://fhir.nhs.uk/Id/nhs-number",
            "type": {
              "coding": [
                {
                  "code": "NH",
                  "system": "http://terminology.hl7.org/CodeSystem/v2-0203"
                }
              ]
            },
            "value": "9737383257"
          },
          "reference": "urn:uuid:b035ad40-9da8-4dd2-8c81-409db0310447"
        },
        "type": {
          "coding": [
            {
              "code": "CATH",
              "display": "Cardiac Catheter Report",
              "system": "L"
            }
          ]
        }
      }
    },
    {
      "fullUrl": "urn:uuid:b7d75318-cefb-4aea-a8b3-e771e655d8b1",
      "resource": {
        "resourceType": "Binary",
        "contentType": "application/pdf",
        "data": "AxNi9Sb290IDE0IDAgUgovSW5mbyAxNSAwIFIKL0lEIFsgPE...KPj4Kc3RhcnR4cmVmCjEyNzg3CiUlRU9GCg=="
      }
    },
    {
      "fullUrl": "urn:uuid:57cd2a83-d012-41e3-b607-6d0a2985ebfe",
      "resource": {
        "resourceType": "DocumentReference",
        "content": [
          {
            "attachment": {
              "contentType": "application/pdf",
              "url": "urn:uuid:b7d75318-cefb-4aea-a8b3-e771e655d8b1"
            }
          }
        ],
        "context": {
          "period": {
            "end": "2018-11-09T12:38:51+00:00",
            "start": "2018-11-09T12:38:51+00:00"
          },
          "related": [
            {
              "identifier": {
                "assigner": {
                  "identifier": {
                    "system": "https://fhir.nhs.uk/Id/ods-organization-code",
                    "value": "7A4BV"
                  }
                },
                "type": {
                  "coding": [
                    {
                      "code": "FILL",
                      "system": "http://terminology.hl7.org/CodeSystem/v2-0203"
                    }
                  ]
                },
                "value": "287018"
              },
              "reference": "urn:uuid:d9b53dc7-968e-4606-be24-4f9ad4113c21",
              "type": "DiagnosticReport"
            }
          ]
        },
        "custodian": {
          "identifier": {
            "system": "https://fhir.nhs.uk/Id/ods-organization-code",
            "value": "699X0"
          },
          "type": "Organization"
        },
        "date": "2018-11-09T12:38:51+00:00",
        "identifier": [
          {
            "assigner": {
              "identifier": {
                "system": "https://fhir.nhs.uk/Id/ods-organization-code",
                "value": "7A4BV"
              }
            },
            "type": {
              "coding": [
                {
                  "code": "FILL",
                  "system": "http://terminology.hl7.org/CodeSystem/v2-0203"
                }
              ]
            },
            "value": "287018"
          }
        ],
        "status": "current",
        "subject": {
          "identifier": {
            "assigner": {
              "identifier": {
                "system": "https://fhir.nhs.uk/Id/ods-organization-code",
                "value": "X24"
              }
            },
            "system": "https://fhir.nhs.uk/Id/nhs-number",
            "type": {
              "coding": [
                {
                  "code": "NH",
                  "system": "http://terminology.hl7.org/CodeSystem/v2-0203"
                }
              ]
            },
            "value": "9737383257"
          },
          "reference": "urn:uuid:b035ad40-9da8-4dd2-8c81-409db0310447"
        },
        "type": {
          "coding": [
            {
              "code": "CATH",
              "display": "Cardiac Catheter Report",
              "system": "L"
            }
          ]
        }
      }
    },
    {
      "fullUrl": "urn:uuid:d9b53dc7-968e-4606-be24-4f9ad4113c21",
      "resource": {
        "resourceType": "DiagnosticReport",
        "category": [
          {
            "coding": [
              {
                "code": "GE",
                "system": "http://terminology.hl7.org/CodeSystem/v2-0074"
              }
            ]
          }
        ],
        "code": {
          "coding": [
            {
              "code": "CATH",
              "display": "Cardiac Catheter Report",
              "system": "L"
            }
          ]
        },
        "effectiveDateTime": "2018-11-09T12:38:51+00:00",
        "identifier": [
          {
            "assigner": {
              "identifier": {
                "system": "https://fhir.nhs.uk/Id/ods-organization-code",
                "value": "7A4BV"
              }
            },
            "type": {
              "coding": [
                {
                  "code": "FILL",
                  "system": "http://terminology.hl7.org/CodeSystem/v2-0203"
                }
              ]
            },
            "value": "287018"
          }
        ],
        "issued": "2018-11-09T12:48:18+00:00",
        "performer": [
          {
            "display": "NHS North West Genomics",
            "identifier": {
              "system": "https://fhir.nhs.uk/Id/ods-organization-code",
              "value": "699X0"
            },
            "type": "Organization"
          }
        ],
        "status": "partial",
        "subject": {
          "identifier": {
            "assigner": {
              "identifier": {
                "system": "https://fhir.nhs.uk/Id/ods-organization-code",
                "value": "X24"
              }
            },
            "system": "https://fhir.nhs.uk/Id/nhs-number",
            "type": {
              "coding": [
                {
                  "code": "NH",
                  "system": "http://terminology.hl7.org/CodeSystem/v2-0203"
                }
              ]
            },
            "value": "9737383257"
          },
          "reference": "urn:uuid:b035ad40-9da8-4dd2-8c81-409db0310447"
        }
      }
    },
    {
      "fullUrl": "urn:uuid:c73ac3b3-9764-4185-9130-8f32579d8d44",
      "resource": {
        "resourceType": "Binary",
        "contentType": "application/pdf",
        "data": "JVBERi0xLjQKJcOkw7zDtsOfCjIgMCBvYm...VmCjEyNzg3CiUlRU9GCg=="
      }
    },
    {
      "fullUrl": "urn:uuid:076d53cc-9021-4061-b35e-b8f74c55fa79",
      "resource": {
        "resourceType": "DocumentReference",
        "content": [
          {
            "attachment": {
              "contentType": "application/pdf",
              "url": "urn:uuid:c73ac3b3-9764-4185-9130-8f32579d8d44"
            }
          }
        ],
        "context": {
          "period": {
            "end": "2018-11-09T12:38:51+00:00",
            "start": "2018-11-09T12:38:51+00:00"
          },
          "related": [
            {
              "identifier": {
                "assigner": {
                  "identifier": {
                    "system": "https://fhir.nhs.uk/Id/ods-organization-code",
                    "value": "7A4BV"
                  }
                },
                "type": {
                  "coding": [
                    {
                      "code": "FILL",
                      "system": "http://terminology.hl7.org/CodeSystem/v2-0203"
                    }
                  ]
                },
                "value": "A28701"
              },
              "reference": "urn:uuid:959ec40c-f44e-4d17-bba1-6029f882f086",
              "type": "DiagnosticReport"
            }
          ]
        },
        "custodian": {
          "identifier": {
            "system": "https://fhir.nhs.uk/Id/ods-organization-code",
            "value": "699X0"
          },
          "type": "Organization"
        },
        "date": "2018-11-09T12:38:51+00:00",
        "identifier": [
          {
            "assigner": {
              "identifier": {
                "system": "https://fhir.nhs.uk/Id/ods-organization-code",
                "value": "7A4BV"
              }
            },
            "type": {
              "coding": [
                {
                  "code": "FILL",
                  "system": "http://terminology.hl7.org/CodeSystem/v2-0203"
                }
              ]
            },
            "value": "A28701"
          }
        ],
        "status": "current",
        "subject": {
          "identifier": {
            "assigner": {
              "identifier": {
                "system": "https://fhir.nhs.uk/Id/ods-organization-code",
                "value": "X24"
              }
            },
            "system": "https://fhir.nhs.uk/Id/nhs-number",
            "type": {
              "coding": [
                {
                  "code": "NH",
                  "system": "http://terminology.hl7.org/CodeSystem/v2-0203"
                }
              ]
            },
            "value": "9737383257"
          },
          "reference": "urn:uuid:b035ad40-9da8-4dd2-8c81-409db0310447"
        },
        "type": {
          "coding": [
            {
              "code": "Appointment",
              "display": "Appointment Letter",
              "system": "L"
            }
          ]
        }
      }
    },
    {
      "fullUrl": "urn:uuid:959ec40c-f44e-4d17-bba1-6029f882f086",
      "resource": {
        "resourceType": "DiagnosticReport",
        "category": [
          {
            "coding": [
              {
                "code": "GE",
                "system": "http://terminology.hl7.org/CodeSystem/v2-0074"
              }
            ]
          }
        ],
        "code": {
          "coding": [
            {
              "code": "Appointment",
              "display": "AppointmentLetter",
              "system": "L"
            }
          ]
        },
        "effectiveDateTime": "2018-11-09T12:38:51+00:00",
        "identifier": [
          {
            "assigner": {
              "identifier": {
                "system": "https://fhir.nhs.uk/Id/ods-organization-code",
                "value": "7A4BV"
              }
            },
            "type": {
              "coding": [
                {
                  "code": "FILL",
                  "system": "http://terminology.hl7.org/CodeSystem/v2-0203"
                }
              ]
            },
            "value": "A28701"
          }
        ],
        "issued": "2018-11-09T12:48:18+00:00",
        "performer": [
          {
            "display": "NHS North West Genomics",
            "identifier": {
              "system": "https://fhir.nhs.uk/Id/ods-organization-code",
              "value": "699X0"
            },
            "type": "Organization"
          }
        ],
        "status": "partial",
        "subject": {
          "identifier": {
            "assigner": {
              "identifier": {
                "system": "https://fhir.nhs.uk/Id/ods-organization-code",
                "value": "X24"
              }
            },
            "system": "https://fhir.nhs.uk/Id/nhs-number",
            "type": {
              "coding": [
                {
                  "code": "NH",
                  "system": "http://terminology.hl7.org/CodeSystem/v2-0203"
                }
              ]
            },
            "value": "9737383257"
          },
          "reference": "urn:uuid:b035ad40-9da8-4dd2-8c81-409db0310447"
        }
      }
    },
    {
      "fullUrl": "urn:uuid:56cfb869-98d7-42f2-9384-7b225a174f3d",
      "resource": {
        "resourceType": "Observation",
        "code": {
          "coding": [
            {
              "code": "INTER",
              "display": "INTERPRETATION",
              "system": "L"
            }
          ]
        },
        "effectiveDateTime": "2019-05-14T10:24:17+00:00",
        "identifier": [
          {
            "type": {
              "coding": [
                {
                  "code": "FILL",
                  "system": "http://terminology.hl7.org/CodeSystem/v2-0203"
                }
              ]
            },
            "value": "190000041:27491"
          }
        ],
        "note": [
          {
            "text": "Interpreted by: ACME Super User, Signed on 05/14/2019 at 10:24\\n"
          }
        ],
        "performer": [
          {
            "identifier": {
              "system": "https://fhir.nhs.uk/Id/ods-organization-code",
              "value": "699X0"
            },
            "type": "Organization"
          }
        ],
        "status": "final",
        "subject": {
          "identifier": {
            "assigner": {
              "identifier": {
                "system": "https://fhir.nhs.uk/Id/ods-organization-code",
                "value": "X24"
              }
            },
            "system": "https://fhir.nhs.uk/Id/nhs-number",
            "type": {
              "coding": [
                {
                  "code": "NH",
                  "system": "http://terminology.hl7.org/CodeSystem/v2-0203"
                }
              ]
            },
            "value": "9737383257"
          },
          "reference": "urn:uuid:b035ad40-9da8-4dd2-8c81-409db0310447"
        },
        "valueString": "rwtu"
      }
    },
    {
      "fullUrl": "urn:uuid:11b5418c-d8e7-4254-85a9-b4ee17f77007",
      "resource": {
        "resourceType": "Observation",
        "code": {
          "coding": [
            {
              "code": "RESTE",
              "display": "Reason for testing",
              "system": "L"
            }
          ]
        },
        "effectiveDateTime": "2019-05-14T10:24:17+00:00",
        "identifier": [
          {
            "type": {
              "coding": [
                {
                  "code": "FILL",
                  "system": "http://terminology.hl7.org/CodeSystem/v2-0203"
                }
              ]
            },
            "value": "190000041:27491"
          }
        ],
        "performer": [
          {
            "identifier": {
              "system": "https://fhir.nhs.uk/Id/ods-organization-code",
              "value": "699X0"
            },
            "type": "Organization"
          }
        ],
        "status": "final",
        "subject": {
          "identifier": {
            "assigner": {
              "identifier": {
                "system": "https://fhir.nhs.uk/Id/ods-organization-code",
                "value": "X24"
              }
            },
            "system": "https://fhir.nhs.uk/Id/nhs-number",
            "type": {
              "coding": [
                {
                  "code": "NH",
                  "system": "http://terminology.hl7.org/CodeSystem/v2-0203"
                }
              ]
            },
            "value": "9737383257"
          },
          "reference": "urn:uuid:b035ad40-9da8-4dd2-8c81-409db0310447"
        },
        "valueString": "erw"
      }
    },
    {
      "fullUrl": "urn:uuid:fe598dd0-dd4a-43f7-883f-60b42f5d8f8b",
      "resource": {
        "resourceType": "Observation",
        "code": {
          "coding": [
            {
              "code": "TMETH",
              "display": "Test Methodology",
              "system": "L"
            }
          ]
        },
        "effectiveDateTime": "2019-05-14T10:24:17+00:00",
        "identifier": [
          {
            "type": {
              "coding": [
                {
                  "code": "FILL",
                  "system": "http://terminology.hl7.org/CodeSystem/v2-0203"
                }
              ]
            },
            "value": "190000041:27491"
          }
        ],
        "performer": [
          {
            "identifier": {
              "system": "https://fhir.nhs.uk/Id/ods-organization-code",
              "value": "699X0"
            },
            "type": "Organization"
          }
        ],
        "status": "final",
        "subject": {
          "identifier": {
            "assigner": {
              "identifier": {
                "system": "https://fhir.nhs.uk/Id/ods-organization-code",
                "value": "X24"
              }
            },
            "system": "https://fhir.nhs.uk/Id/nhs-number",
            "type": {
              "coding": [
                {
                  "code": "NH",
                  "system": "http://terminology.hl7.org/CodeSystem/v2-0203"
                }
              ]
            },
            "value": "9737383257"
          },
          "reference": "urn:uuid:b035ad40-9da8-4dd2-8c81-409db0310447"
        },
        "valueString": "sfjg"
      }
    },
    {
      "fullUrl": "urn:uuid:715a3da4-ef49-4f6f-97ef-e77e6110575b",
      "resource": {
        "resourceType": "Observation",
        "code": {
          "coding": [
            {
              "code": "RESUM",
              "display": "Result summary",
              "system": "L"
            }
          ]
        },
        "effectiveDateTime": "2019-05-14T10:24:17+00:00",
        "identifier": [
          {
            "type": {
              "coding": [
                {
                  "code": "FILL",
                  "system": "http://terminology.hl7.org/CodeSystem/v2-0203"
                }
              ]
            },
            "value": "190000041:27491"
          }
        ],
        "performer": [
          {
            "identifier": {
              "system": "https://fhir.nhs.uk/Id/ods-organization-code",
              "value": "699X0"
            },
            "type": "Organization"
          }
        ],
        "status": "final",
        "subject": {
          "identifier": {
            "assigner": {
              "identifier": {
                "system": "https://fhir.nhs.uk/Id/ods-organization-code",
                "value": "X24"
              }
            },
            "system": "https://fhir.nhs.uk/Id/nhs-number",
            "type": {
              "coding": [
                {
                  "code": "NH",
                  "system": "http://terminology.hl7.org/CodeSystem/v2-0203"
                }
              ]
            },
            "value": "9737383257"
          },
          "reference": "urn:uuid:b035ad40-9da8-4dd2-8c81-409db0310447"
        },
        "valueString": "tyityu"
      }
    },
    {
      "fullUrl": "urn:uuid:44560458-0d55-493f-b2d7-c5d0b249c5be",
      "resource": {
        "resourceType": "Observation",
        "code": {
          "coding": [
            {
              "code": "PATPH",
              "display": "Patient phenotype",
              "system": "L"
            }
          ]
        },
        "effectiveDateTime": "2019-05-14T10:24:17+00:00",
        "identifier": [
          {
            "type": {
              "coding": [
                {
                  "code": "FILL",
                  "system": "http://terminology.hl7.org/CodeSystem/v2-0203"
                }
              ]
            },
            "value": "190000041:27491"
          }
        ],
        "performer": [
          {
            "identifier": {
              "system": "https://fhir.nhs.uk/Id/ods-organization-code",
              "value": "699X0"
            },
            "type": "Organization"
          }
        ],
        "status": "final",
        "subject": {
          "identifier": {
            "assigner": {
              "identifier": {
                "system": "https://fhir.nhs.uk/Id/ods-organization-code",
                "value": "X24"
              }
            },
            "system": "https://fhir.nhs.uk/Id/nhs-number",
            "type": {
              "coding": [
                {
                  "code": "NH",
                  "system": "http://terminology.hl7.org/CodeSystem/v2-0203"
                }
              ]
            },
            "value": "9737383257"
          },
          "reference": "urn:uuid:b035ad40-9da8-4dd2-8c81-409db0310447"
        },
        "valueString": "ghfjg"
      }
    },
    {
      "fullUrl": "urn:uuid:8fb7b2b9-1735-4b1d-9a5d-0c4e1640cd35",
      "resource": {
        "resourceType": "Observation",
        "code": {
          "coding": [
            {
              "code": "FOLL",
              "display": "Follow-up",
              "system": "L"
            }
          ]
        },
        "effectiveDateTime": "2019-05-14T10:24:17+00:00",
        "identifier": [
          {
            "type": {
              "coding": [
                {
                  "code": "FILL",
                  "system": "http://terminology.hl7.org/CodeSystem/v2-0203"
                }
              ]
            },
            "value": "190000041:27491"
          }
        ],
        "performer": [
          {
            "identifier": {
              "system": "https://fhir.nhs.uk/Id/ods-organization-code",
              "value": "699X0"
            },
            "type": "Organization"
          }
        ],
        "status": "final",
        "subject": {
          "identifier": {
            "assigner": {
              "identifier": {
                "system": "https://fhir.nhs.uk/Id/ods-organization-code",
                "value": "X24"
              }
            },
            "system": "https://fhir.nhs.uk/Id/nhs-number",
            "type": {
              "coding": [
                {
                  "code": "NH",
                  "system": "http://terminology.hl7.org/CodeSystem/v2-0203"
                }
              ]
            },
            "value": "9737383257"
          },
          "reference": "urn:uuid:b035ad40-9da8-4dd2-8c81-409db0310447"
        },
        "valueString": "yue"
      }
    },
    {
      "fullUrl": "urn:uuid:dc371486-d808-41fb-ab31-91ce5065985f",
      "resource": {
        "resourceType": "Binary",
        "contentType": "application/pdf",
        "data": ""
      }
    },
    {
      "fullUrl": "urn:uuid:3d9fd19b-d444-4f6b-b3dd-126f01ec4d78",
      "resource": {
        "resourceType": "DocumentReference",
        "content": [
          {
            "attachment": {
              "contentType": "application/pdf",
              "url": "urn:uuid:dc371486-d808-41fb-ab31-91ce5065985f"
            }
          }
        ],
        "context": {
          "period": {
            "end": "2019-05-14T10:24:17+00:00",
            "start": "2019-05-14T10:24:17+00:00"
          },
          "related": [
            {
              "identifier": {
                "type": {
                  "coding": [
                    {
                      "code": "FILL",
                      "system": "http://terminology.hl7.org/CodeSystem/v2-0203"
                    }
                  ]
                },
                "value": "190000041:27491"
              },
              "reference": "urn:uuid:dd474906-fc18-4f6f-82c0-4c4e27498997",
              "type": "DiagnosticReport"
            }
          ]
        },
        "custodian": {
          "identifier": {
            "system": "https://fhir.nhs.uk/Id/ods-organization-code",
            "value": "699X0"
          },
          "type": "Organization"
        },
        "date": "2019-05-14T10:24:17+00:00",
        "identifier": [
          {
            "type": {
              "coding": [
                {
                  "code": "FILL",
                  "system": "http://terminology.hl7.org/CodeSystem/v2-0203"
                }
              ]
            },
            "value": "190000041:27491"
          }
        ],
        "status": "current",
        "subject": {
          "identifier": {
            "assigner": {
              "identifier": {
                "system": "https://fhir.nhs.uk/Id/ods-organization-code",
                "value": "X24"
              }
            },
            "system": "https://fhir.nhs.uk/Id/nhs-number",
            "type": {
              "coding": [
                {
                  "code": "NH",
                  "system": "http://terminology.hl7.org/CodeSystem/v2-0203"
                }
              ]
            },
            "value": "9737383257"
          },
          "reference": "urn:uuid:b035ad40-9da8-4dd2-8c81-409db0310447"
        },
        "type": {
          "coding": [
            {
              "code": "823781000000108",
              "display": "MDT (multidisciplinary team) letter",
              "system": "http://snomed.info/sct"
            }
          ]
        }
      }
    },
    {
      "fullUrl": "urn:uuid:b87da7a1-699d-4db9-b373-22a74a8ac941",
      "resource": {
        "resourceType": "Observation",
        "code": {
          "coding": [
            {
              "code": "RESLT",
              "display": "Result",
              "system": "L"
            }
          ]
        },
        "effectiveDateTime": "2019-05-14T10:24:17+00:00",
        "identifier": [
          {
            "type": {
              "coding": [
                {
                  "code": "FILL",
                  "system": "http://terminology.hl7.org/CodeSystem/v2-0203"
                }
              ]
            },
            "value": "190000041:27491"
          }
        ],
        "performer": [
          {
            "identifier": {
              "system": "https://fhir.nhs.uk/Id/ods-organization-code",
              "value": "699X0"
            },
            "type": "Organization"
          }
        ],
        "status": "final",
        "subject": {
          "identifier": {
            "assigner": {
              "identifier": {
                "system": "https://fhir.nhs.uk/Id/ods-organization-code",
                "value": "X24"
              }
            },
            "system": "https://fhir.nhs.uk/Id/nhs-number",
            "type": {
              "coding": [
                {
                  "code": "NH",
                  "system": "http://terminology.hl7.org/CodeSystem/v2-0203"
                }
              ]
            },
            "value": "9737383257"
          },
          "reference": "urn:uuid:b035ad40-9da8-4dd2-8c81-409db0310447"
        },
        "valueString": "dhjhd"
      }
    },
    {
      "fullUrl": "urn:uuid:807d866f-6f65-4fdb-967f-fdbfc58a194e",
      "resource": {
        "resourceType": "Observation",
        "code": {
          "coding": [
            {
              "code": "GRFALN1",
              "display": "AlphaNumeric Generic Result Field 1",
              "system": "L"
            }
          ]
        },
        "effectiveDateTime": "2019-05-14T10:23:35+00:00",
        "identifier": [
          {
            "type": {
              "coding": [
                {
                  "code": "FILL",
                  "system": "http://terminology.hl7.org/CodeSystem/v2-0203"
                }
              ]
            },
            "value": "190000041:27491"
          }
        ],
        "performer": [
          {
            "identifier": {
              "system": "https://fhir.nhs.uk/Id/ods-organization-code",
              "value": "699X0"
            },
            "type": "Organization"
          }
        ],
        "status": "final",
        "subject": {
          "identifier": {
            "assigner": {
              "identifier": {
                "system": "https://fhir.nhs.uk/Id/ods-organization-code",
                "value": "X24"
              }
            },
            "system": "https://fhir.nhs.uk/Id/nhs-number",
            "type": {
              "coding": [
                {
                  "code": "NH",
                  "system": "http://terminology.hl7.org/CodeSystem/v2-0203"
                }
              ]
            },
            "value": "9737383257"
          },
          "reference": "urn:uuid:b035ad40-9da8-4dd2-8c81-409db0310447"
        },
        "valueString": "234dfsgsg"
      }
    },
    {
      "fullUrl": "urn:uuid:4f71e96c-4958-4526-b3bb-fc2b3cee09ea",
      "resource": {
        "resourceType": "Binary",
        "contentType": "application/pdf",
        "data": "JVBERi0xLjMKJeLjz9MKMiAwIG9iago8PC..."
      }
    },
    {
      "fullUrl": "urn:uuid:f2fb97db-0319-47ae-a798-17d3fffa1e11",
      "resource": {
        "resourceType": "DocumentReference",
        "content": [
          {
            "attachment": {
              "contentType": "application/pdf",
              "url": "urn:uuid:4f71e96c-4958-4526-b3bb-fc2b3cee09ea"
            }
          }
        ],
        "context": {
          "period": {
            "end": "2019-05-14T10:23:35+00:00",
            "start": "2019-05-14T10:23:35+00:00"
          },
          "related": [
            {
              "identifier": {
                "type": {
                  "coding": [
                    {
                      "code": "FILL",
                      "system": "http://terminology.hl7.org/CodeSystem/v2-0203"
                    }
                  ]
                },
                "value": "190000041:27491"
              },
              "reference": "urn:uuid:dd474906-fc18-4f6f-82c0-4c4e27498997",
              "type": "DiagnosticReport"
            }
          ]
        },
        "custodian": {
          "identifier": {
            "system": "https://fhir.nhs.uk/Id/ods-organization-code",
            "value": "699X0"
          },
          "type": "Organization"
        },
        "date": "2019-05-14T10:23:35+00:00",
        "identifier": [
          {
            "type": {
              "coding": [
                {
                  "code": "FILL",
                  "system": "http://terminology.hl7.org/CodeSystem/v2-0203"
                }
              ]
            },
            "value": "190000041:27491"
          }
        ],
        "status": "current",
        "subject": {
          "identifier": {
            "assigner": {
              "identifier": {
                "system": "https://fhir.nhs.uk/Id/ods-organization-code",
                "value": "X24"
              }
            },
            "system": "https://fhir.nhs.uk/Id/nhs-number",
            "type": {
              "coding": [
                {
                  "code": "NH",
                  "system": "http://terminology.hl7.org/CodeSystem/v2-0203"
                }
              ]
            },
            "value": "9737383257"
          },
          "reference": "urn:uuid:b035ad40-9da8-4dd2-8c81-409db0310447"
        },
        "type": {
          "coding": [
            {
              "code": "MOLT",
              "display": "MOL TEST NAME",
              "system": "L"
            }
          ]
        }
      }
    },
    {
      "fullUrl": "urn:uuid:a0c1844b-7d2d-4788-a0ff-0791eccd9a48",
      "resource": {
        "resourceType": "DocumentReference",
        "content": [
          {
            "attachment": {
              "url": "http://documents.example.com/document123.pdf"
            }
          }
        ],
        "context": {
          "period": {
            "end": "2019-05-14T10:23:35+00:00",
            "start": "2019-05-14T10:23:35+00:00"
          },
          "related": [
            {
              "identifier": {
                "type": {
                  "coding": [
                    {
                      "code": "FILL",
                      "system": "http://terminology.hl7.org/CodeSystem/v2-0203"
                    }
                  ]
                },
                "value": "190000041:27491"
              },
              "reference": "urn:uuid:dd474906-fc18-4f6f-82c0-4c4e27498997",
              "type": "DiagnosticReport"
            }
          ]
        },
        "custodian": {
          "identifier": {
            "system": "https://fhir.nhs.uk/Id/ods-organization-code",
            "value": "699X0"
          },
          "type": "Organization"
        },
        "date": "2019-05-14T10:23:35+00:00",
        "identifier": [
          {
            "type": {
              "coding": [
                {
                  "code": "FILL",
                  "system": "http://terminology.hl7.org/CodeSystem/v2-0203"
                }
              ]
            },
            "value": "190000041:27491"
          }
        ],
        "status": "current",
        "subject": {
          "identifier": {
            "assigner": {
              "identifier": {
                "system": "https://fhir.nhs.uk/Id/ods-organization-code",
                "value": "X24"
              }
            },
            "system": "https://fhir.nhs.uk/Id/nhs-number",
            "type": {
              "coding": [
                {
                  "code": "NH",
                  "system": "http://terminology.hl7.org/CodeSystem/v2-0203"
                }
              ]
            },
            "value": "9737383257"
          },
          "reference": "urn:uuid:b035ad40-9da8-4dd2-8c81-409db0310447"
        },
        "type": {
          "coding": [
            {
              "code": "MOLT",
              "display": "MOL TEST NAME",
              "system": "L"
            }
          ]
        }
      }
    },
    {
      "fullUrl": "urn:uuid:02b6516f-0751-458d-83ac-cba30cecbc43",
      "resource": {
        "resourceType": "Specimen",
        "identifier": [
          {
            "type": {
              "coding": [
                {
                  "code": "PLAC",
                  "system": "http://terminology.hl7.org/CodeSystem/v2-0203"
                }
              ]
            },
            "value": "190000041:27491"
          }
        ],
        "receivedTime": "2019-05-14T10:20:00+00:00",
        "status": "unavailable",
        "subject": {
          "identifier": {
            "assigner": {
              "identifier": {
                "system": "https://fhir.nhs.uk/Id/ods-organization-code",
                "value": "X24"
              }
            },
            "system": "https://fhir.nhs.uk/Id/nhs-number",
            "type": {
              "coding": [
                {
                  "code": "NH",
                  "system": "http://terminology.hl7.org/CodeSystem/v2-0203"
                }
              ]
            },
            "value": "9737383257"
          },
          "reference": "urn:uuid:b035ad40-9da8-4dd2-8c81-409db0310447"
        }
      }
    },
    {
      "fullUrl": "urn:uuid:dd474906-fc18-4f6f-82c0-4c4e27498997",
      "resource": {
        "resourceType": "DiagnosticReport",
        "category": [
          {
            "coding": [
              {
                "code": "GE",
                "system": "http://terminology.hl7.org/CodeSystem/v2-0074"
              }
            ]
          }
        ],
        "code": {
          "coding": [
            {
              "code": "MOLT",
              "display": "MOL TEST NAME",
              "system": "L"
            }
          ]
        },
        "effectiveDateTime": "2019-05-14T10:20:00+00:00",
        "identifier": [
          {
            "type": {
              "coding": [
                {
                  "code": "FILL",
                  "system": "http://terminology.hl7.org/CodeSystem/v2-0203"
                }
              ]
            },
            "value": "190000041:27491"
          }
        ],
        "issued": "2019-05-14T10:24:17+00:00",
        "performer": [
          {
            "extension": [
              {
                "url": "http://hl7.org/fhir/StructureDefinition/event-performerFunction",
                "valueCodeableConcept": {
                  "coding": [
                    {
                      "code": "SPRF",
                      "system": "http://terminology.hl7.org/CodeSystem/v3-ParticipationType"
                    }
                  ]
                }
              }
            ]
          },
          {
            "display": "NHS North West Genomics",
            "identifier": {
              "system": "https://fhir.nhs.uk/Id/ods-organization-code",
              "value": "699X0"
            },
            "type": "Organization"
          }
        ],
        "result": [
          {
            "display": "INTERPRETATION",
            "reference": "urn:uuid:56cfb869-98d7-42f2-9384-7b225a174f3d",
            "type": "Observation"
          },
          {
            "display": "Reason for testing",
            "reference": "urn:uuid:11b5418c-d8e7-4254-85a9-b4ee17f77007",
            "type": "Observation"
          },
          {
            "display": "Test Methodology",
            "reference": "urn:uuid:fe598dd0-dd4a-43f7-883f-60b42f5d8f8b",
            "type": "Observation"
          },
          {
            "display": "Result summary",
            "reference": "urn:uuid:715a3da4-ef49-4f6f-97ef-e77e6110575b",
            "type": "Observation"
          },
          {
            "display": "Patient phenotype",
            "reference": "urn:uuid:44560458-0d55-493f-b2d7-c5d0b249c5be",
            "type": "Observation"
          },
          {
            "display": "Follow-up",
            "reference": "urn:uuid:8fb7b2b9-1735-4b1d-9a5d-0c4e1640cd35",
            "type": "Observation"
          },
          {
            "display": "Result",
            "reference": "urn:uuid:b87da7a1-699d-4db9-b373-22a74a8ac941",
            "type": "Observation"
          },
          {
            "display": "AlphaNumeric Generic Result Field 1",
            "reference": "urn:uuid:807d866f-6f65-4fdb-967f-fdbfc58a194e",
            "type": "Observation"
          }
        ],
        "specimen": [
          {
            "reference": "urn:uuid:02b6516f-0751-458d-83ac-cba30cecbc43",
            "type": "Specimen"
          }
        ],
        "status": "final",
        "subject": {
          "identifier": {
            "assigner": {
              "identifier": {
                "system": "https://fhir.nhs.uk/Id/ods-organization-code",
                "value": "X24"
              }
            },
            "system": "https://fhir.nhs.uk/Id/nhs-number",
            "type": {
              "coding": [
                {
                  "code": "NH",
                  "system": "http://terminology.hl7.org/CodeSystem/v2-0203"
                }
              ]
            },
            "value": "9737383257"
          },
          "reference": "urn:uuid:b035ad40-9da8-4dd2-8c81-409db0310447"
        }
      }
    }
  ],
  "identifier": {
    "value": "5051095-201905141025"
  },
  "timestamp": "2019-05-14T10:25:27+00:00",
  "type": "message"
}