{
  "resourceType": "Bundle",
  "entry": [
    {
      "fullUrl": "urn:uuid:a0967f32-da4b-40c0-8692-9c82924df12a",
      "resource": {
        "resourceType": "MessageHeader",
        "destination": [
          {
            "endpoint": "https//fhir.mft.nhs.uk/Endpoint/cymru.nhs.uk",
            "receiver": {
              "identifier": {
                "system": "https://fhir.nhs.uk/Id/ods-organization-code",
                "value": "NHSWales"
              }
            }
          }
        ],
        "eventCoding": {
          "code": "R01",
          "system": "http://terminology.hl7.org/CodeSystem/v2-0003"
        },
        "focus": [
          {
            "reference": "urn:uuid:8b12b635-0f68-4d7f-944a-2de166a4fa83"
          }
        ],
        "sender": {
          "identifier": {
            "system": "https://fhir.nhs.uk/Id/ods-organization-code",
            "value": "CAV"
          }
        },
        "source": {
          "endpoint": "https://fhir.nwgenomics.nhs.uk/Endpoint/ACMELab",
          "software": "NW GLH"
        }
      }
    },
    {
      "fullUrl": "urn:uuid:94351280-56c3-405d-b481-ea915369f32a",
      "resource": {
        "resourceType": "Patient",
        "address": [
          {
            "city": "Baglan",
            "district": "Neath port talbot",
            "line": [
              "A B M U Health Board",
              "One Talbot Gateway"
            ],
            "postalCode": "SA12 7BR"
          }
        ],
        "birthDate": "1999-10-13",
        "gender": "male",
        "identifier": [
          {
            "assigner": {
              "identifier": {
                "system": "https://fhir.nhs.uk/Id/ods-organization-code",
                "value": "7A4"
              }
            },
            "type": {
              "coding": [
                {
                  "code": "PI",
                  "system": "http://terminology.hl7.org/CodeSystem/v2-0203"
                }
              ]
            },
            "value": "403281375"
          },
          {
            "assigner": {
              "identifier": {
                "system": "https://fhir.nhs.uk/Id/ods-organization-code",
                "value": "X24"
              }
            },
            "system": "https://fhir.nhs.uk/Id/nhs-number",
            "type": {
              "coding": [
                {
                  "code": "NH",
                  "system": "http://terminology.hl7.org/CodeSystem/v2-0203"
                }
              ]
            },
            "value": "9737383257"
          }
        ],
        "name": [
          {
            "family": "WREXHAM",
            "given": [
              "Myrcella"
            ],
            "prefix": [
              "Mr"
            ]
          }
        ]
      }
    },
    {
      "fullUrl": "urn:uuid:c26b4564-5211-4170-b83d-6ba3ce1ff17d",
      "resource": {
        "resourceType": "Encounter",
        "class": {
          "code": "OBSENC",
          "system": "http://terminology.hl7.org/CodeSystem/v3-ActCode"
        },
        "status": "finished",
        "subject": {
          "identifier": {
            "assigner": {
              "identifier": {
                "system": "https://fhir.nhs.uk/Id/ods-organization-code",
                "value": "X24"
              }
            },
            "system": "https://fhir.nhs.uk/Id/nhs-number",
            "type": {
              "coding": [
                {
                  "code": "NH",
                  "system": "http://terminology.hl7.org/CodeSystem/v2-0203"
                }
              ]
            },
            "value": "9737383257"
          },
          "reference": "urn:uuid:94351280-56c3-405d-b481-ea915369f32a"
        }
      }
    },
    {
      "fullUrl": "urn:uuid:bd4a55cd-9a0b-4d7f-9ce2-41272eb0b4e3",
      "resource": {
        "resourceType": "Observation",
        "code": {
          "text": "Report Line 1"
        },
        "effectiveDateTime": "2018-05-24T00:00:00+00:00",
        "identifier": [
          {
            "type": {
              "coding": [
                {
                  "code": "FILL",
                  "system": "http://terminology.hl7.org/CodeSystem/v2-0203"
                }
              ]
            },
            "value": "8005372251-1-M0007"
          }
        ],
        "performer": [
          {
            "identifier": {
              "system": "https://fhir.nhs.uk/Id/ods-organization-code",
              "value": "699X0"
            },
            "type": "Organization"
          }
        ],
        "status": "final",
        "subject": {
          "identifier": {
            "assigner": {
              "identifier": {
                "system": "https://fhir.nhs.uk/Id/ods-organization-code",
                "value": "X24"
              }
            },
            "system": "https://fhir.nhs.uk/Id/nhs-number",
            "type": {
              "coding": [
                {
                  "code": "NH",
                  "system": "http://terminology.hl7.org/CodeSystem/v2-0203"
                }
              ]
            },
            "value": "9737383257"
          },
          "reference": "urn:uuid:94351280-56c3-405d-b481-ea915369f32a"
        },
        "valueString": "Specimen received: Mid Stream Urine\\n\\nAccession Number(s) U18S999001A\\nWhite Blood Cell Count 10-99 x10/S/6/L\\nRed Blood Cell Count >=100 x10/S/6/L\\n\\n>= 10/S/8 cfu/L Escherichia coli (ECOL)\\n\\nAntibiotic/Culture: ECOL\\n------------------- ------\\nNitrofurantoin S\\nTrimethoprim S\\nAmoxicillin R\\n"
      }
    },
    {
      "fullUrl": "urn:uuid:2d9dad91-9372-495f-9df8-86eb5f6fd9ff",
      "resource": {
        "resourceType": "Specimen",
        "collection": {
          "collectedDateTime": "2018-05-24T00:00:00+00:00"
        },
        "identifier": [
          {
            "type": {
              "coding": [
                {
                  "code": "FILL",
                  "system": "http://terminology.hl7.org/CodeSystem/v2-0203"
                }
              ]
            },
            "value": "8005372251"
          }
        ],
        "receivedTime": "2018-05-24T00:00:00+00:00",
        "status": "unavailable",
        "subject": {
          "identifier": {
            "assigner": {
              "identifier": {
                "system": "https://fhir.nhs.uk/Id/ods-organization-code",
                "value": "X24"
              }
            },
            "system": "https://fhir.nhs.uk/Id/nhs-number",
            "type": {
              "coding": [
                {
                  "code": "NH",
                  "system": "http://terminology.hl7.org/CodeSystem/v2-0203"
                }
              ]
            },
            "value": "9737383257"
          },
          "reference": "urn:uuid:94351280-56c3-405d-b481-ea915369f32a"
        },
        "type": {
          "coding": [
            {
              "code": "MMSU",
              "display": "Mid Stream Urine",
              "system": "ACME"
            }
          ]
        }
      }
    },
    {
      "fullUrl": "urn:uuid:0ef9df29-1652-47af-b580-1c2963d607d6",
      "resource": {
        "resourceType": "ServiceRequest",
        "category": [
          {
            "coding": [
              {
                "code": "116148004",
                "system": "http://snomed.info/sct"
              }
            ]
          }
        ],
        "code": {
          "coding": [
            {
              "code": "M0007",
              "display": "Urine MC/T/S"
            }
          ]
        },
        "encounter": {
          "reference": "urn:uuid:c26b4564-5211-4170-b83d-6ba3ce1ff17d"
        },
        "identifier": [
          {
            "type": {
              "coding": [
                {
                  "code": "FILL",
                  "system": "http://terminology.hl7.org/CodeSystem/v2-0203"
                }
              ]
            },
            "value": "8005372251-1-M0007"
          }
        ],
        "intent": "order",
        "specimen": [
          {
            "reference": "urn:uuid:2d9dad91-9372-495f-9df8-86eb5f6fd9ff",
            "type": "Specimen"
          }
        ],
        "status": "completed",
        "subject": {
          "identifier": {
            "assigner": {
              "identifier": {
                "system": "https://fhir.nhs.uk/Id/ods-organization-code",
                "value": "X24"
              }
            },
            "system": "https://fhir.nhs.uk/Id/nhs-number",
            "type": {
              "coding": [
                {
                  "code": "NH",
                  "system": "http://terminology.hl7.org/CodeSystem/v2-0203"
                }
              ]
            },
            "value": "9737383257"
          },
          "reference": "urn:uuid:94351280-56c3-405d-b481-ea915369f32a"
        }
      }
    },
    {
      "fullUrl": "urn:uuid:8b12b635-0f68-4d7f-944a-2de166a4fa83",
      "resource": {
        "resourceType": "DiagnosticReport",
        "basedOn": [
          {
            "identifier": {
              "type": {
                "coding": [
                  {
                    "code": "FILL",
                    "system": "http://terminology.hl7.org/CodeSystem/v2-0203"
                  }
                ]
              },
              "value": "8005372251-1-M0007"
            },
            "reference": "urn:uuid:0ef9df29-1652-47af-b580-1c2963d607d6",
            "type": "ServiceRequest"
          }
        ],
        "category": [
          {
            "coding": [
              {
                "code": "GE",
                "system": "http://terminology.hl7.org/CodeSystem/v2-0074"
              }
            ]
          }
        ],
        "code": {
          "coding": [
            {
              "code": "M0007",
              "display": "Urine MC/T/S"
            }
          ]
        },
        "effectiveDateTime": "2018-05-24T00:00:00+00:00",
        "encounter": {
          "reference": "urn:uuid:c26b4564-5211-4170-b83d-6ba3ce1ff17d"
        },
        "identifier": [
          {
            "type": {
              "coding": [
                {
                  "code": "FILL",
                  "system": "http://terminology.hl7.org/CodeSystem/v2-0203"
                }
              ]
            },
            "value": "8005372251-1-M0007"
          }
        ],
        "issued": "2018-05-24T00:00:00+00:00",
        "performer": [
          {
            "display": "NHS North West Genomics",
            "identifier": {
              "system": "https://fhir.nhs.uk/Id/ods-organization-code",
              "value": "699X0"
            },
            "type": "Organization"
          }
        ],
        "result": [
          {
            "reference": "urn:uuid:bd4a55cd-9a0b-4d7f-9ce2-41272eb0b4e3",
            "type": "Observation"
          }
        ],
        "specimen": [
          {
            "reference": "urn:uuid:2d9dad91-9372-495f-9df8-86eb5f6fd9ff",
            "type": "Specimen"
          }
        ],
        "status": "final",
        "subject": {
          "identifier": {
            "assigner": {
              "identifier": {
                "system": "https://fhir.nhs.uk/Id/ods-organization-code",
                "value": "X24"
              }
            },
            "system": "https://fhir.nhs.uk/Id/nhs-number",
            "type": {
              "coding": [
                {
                  "code": "NH",
                  "system": "http://terminology.hl7.org/CodeSystem/v2-0203"
                }
              ]
            },
            "value": "9737383257"
          },
          "reference": "urn:uuid:94351280-56c3-405d-b481-ea915369f32a"
        }
      }
    }
  ],
  "identifier": {
    "value": "5051095-201905141025"
  },
  "timestamp": "2019-05-14T10:25:27+00:00",
  "type": "message"
}