{
  "resourceType": "Bundle",
  "entry": [
    {
      "fullUrl": "urn:uuid:485f41aa-86b7-4863-9132-d9b044a17e4f",
      "resource": {
        "resourceType": "MessageHeader",
        "destination": [
          {
            "endpoint": "https//fhir.mft.nhs.uk/Endpoint/cymru.nhs.uk",
            "receiver": {
              "identifier": {
                "system": "https://fhir.nhs.uk/Id/ods-organization-code",
                "value": "NHSWales"
              }
            }
          }
        ],
        "eventCoding": {
          "code": "R01",
          "system": "http://terminology.hl7.org/CodeSystem/v2-0003"
        },
        "focus": [
          {
            "reference": "urn:uuid:8c60d55d-2ad8-4da1-9eb6-009b17b91cfa"
          },
          {
            "reference": "urn:uuid:20fdd267-ffd1-4c00-976b-ec9d1cd21bdb"
          },
          {
            "reference": "urn:uuid:dd730957-7261-450a-99aa-9d043916c68d"
          },
          {
            "reference": "urn:uuid:1420fdbb-bdb4-4cc7-b10c-01f97868f3f7"
          },
          {
            "reference": "urn:uuid:ea25e58b-a789-46c0-89cc-4cd502aa3277"
          }
        ],
        "sender": {
          "identifier": {
            "system": "https://fhir.nhs.uk/Id/ods-organization-code",
            "value": "CAV"
          }
        },
        "source": {
          "endpoint": "https://fhir.nwgenomics.nhs.uk/Endpoint/ACMELab",
          "software": "NW GLH"
        }
      }
    },
    {
      "fullUrl": "urn:uuid:eb3b57f6-7b81-4177-a8f6-ebcb09f5d181",
      "resource": {
        "resourceType": "Patient",
        "address": [
          {
            "city": "Baglan",
            "district": "Neath port talbot",
            "line": [
              "A B M U Health Board",
              "One Talbot Gateway"
            ],
            "postalCode": "SA12 7BR"
          }
        ],
        "birthDate": "1999-10-13",
        "gender": "male",
        "identifier": [
          {
            "assigner": {
              "identifier": {
                "system": "https://fhir.nhs.uk/Id/ods-organization-code",
                "value": "7A4"
              }
            },
            "type": {
              "coding": [
                {
                  "code": "PI",
                  "system": "http://terminology.hl7.org/CodeSystem/v2-0203"
                }
              ]
            },
            "value": "403281375"
          },
          {
            "assigner": {
              "identifier": {
                "system": "https://fhir.nhs.uk/Id/ods-organization-code",
                "value": "X24"
              }
            },
            "system": "https://fhir.nhs.uk/Id/nhs-number",
            "type": {
              "coding": [
                {
                  "code": "NH",
                  "system": "http://terminology.hl7.org/CodeSystem/v2-0203"
                }
              ]
            },
            "value": "9737383257"
          }
        ],
        "name": [
          {
            "family": "WREXHAM",
            "given": [
              "Myrcella"
            ],
            "prefix": [
              "Mr"
            ]
          }
        ]
      }
    },
    {
      "fullUrl": "urn:uuid:e0b4705f-25a0-4395-8040-e3b5b294c3ab",
      "resource": {
        "resourceType": "Observation",
        "code": {
          "coding": [
            {
              "code": "B3553",
              "display": "HbA1c (IFCC traceable)"
            }
          ]
        },
        "effectiveDateTime": "2018-03-09T15:00:00+00:00",
        "identifier": [
          {
            "type": {
              "coding": [
                {
                  "code": "FILL",
                  "system": "http://terminology.hl7.org/CodeSystem/v2-0203"
                }
              ]
            },
            "value": "914694928301"
          }
        ],
        "performer": [
          {
            "identifier": {
              "system": "https://fhir.nhs.uk/Id/ods-organization-code",
              "value": "699X0"
            },
            "type": "Organization"
          }
        ],
        "referenceRange": [
          {
            "text": "<48"
          }
        ],
        "status": "final",
        "subject": {
          "identifier": {
            "assigner": {
              "identifier": {
                "system": "https://fhir.nhs.uk/Id/ods-organization-code",
                "value": "X24"
              }
            },
            "system": "https://fhir.nhs.uk/Id/nhs-number",
            "type": {
              "coding": [
                {
                  "code": "NH",
                  "system": "http://terminology.hl7.org/CodeSystem/v2-0203"
                }
              ]
            },
            "value": "9737383257"
          },
          "reference": "urn:uuid:eb3b57f6-7b81-4177-a8f6-ebcb09f5d181"
        },
        "valueQuantity": {
          "system": "http://unitsofmeasure.org",
          "unit": "mmol/mol",
          "value": 49
        }
      }
    },
    {
      "fullUrl": "urn:uuid:64e87ff2-5333-497c-b36a-811f19e66f1a",
      "resource": {
        "resourceType": "Specimen",
        "identifier": [
          {
            "type": {
              "coding": [
                {
                  "code": "PLAC",
                  "system": "http://terminology.hl7.org/CodeSystem/v2-0203"
                }
              ]
            },
            "value": "914694928301"
          }
        ],
        "receivedTime": "2018-03-09T15:00:00+00:00",
        "status": "unavailable",
        "subject": {
          "identifier": {
            "assigner": {
              "identifier": {
                "system": "https://fhir.nhs.uk/Id/ods-organization-code",
                "value": "X24"
              }
            },
            "system": "https://fhir.nhs.uk/Id/nhs-number",
            "type": {
              "coding": [
                {
                  "code": "NH",
                  "system": "http://terminology.hl7.org/CodeSystem/v2-0203"
                }
              ]
            },
            "value": "9737383257"
          },
          "reference": "urn:uuid:eb3b57f6-7b81-4177-a8f6-ebcb09f5d181"
        }
      }
    },
    {
      "fullUrl": "urn:uuid:6703e057-3f4a-476b-a22e-ed54adccc8e1",
      "resource": {
        "resourceType": "ServiceRequest",
        "category": [
          {
            "coding": [
              {
                "code": "116148004",
                "system": "http://snomed.info/sct"
              }
            ]
          }
        ],
        "code": {
          "coding": [
            {
              "code": "B3051",
              "display": "HbA1c (IFCC traceable)"
            }
          ]
        },
        "identifier": [
          {
            "type": {
              "coding": [
                {
                  "code": "FILL",
                  "system": "http://terminology.hl7.org/CodeSystem/v2-0203"
                }
              ]
            },
            "value": "914694928301"
          }
        ],
        "intent": "order",
        "specimen": [
          {
            "reference": "urn:uuid:64e87ff2-5333-497c-b36a-811f19e66f1a",
            "type": "Specimen"
          }
        ],
        "status": "completed",
        "subject": {
          "identifier": {
            "assigner": {
              "identifier": {
                "system": "https://fhir.nhs.uk/Id/ods-organization-code",
                "value": "X24"
              }
            },
            "system": "https://fhir.nhs.uk/Id/nhs-number",
            "type": {
              "coding": [
                {
                  "code": "NH",
                  "system": "http://terminology.hl7.org/CodeSystem/v2-0203"
                }
              ]
            },
            "value": "9737383257"
          },
          "reference": "urn:uuid:eb3b57f6-7b81-4177-a8f6-ebcb09f5d181"
        }
      }
    },
    {
      "fullUrl": "urn:uuid:8c60d55d-2ad8-4da1-9eb6-009b17b91cfa",
      "resource": {
        "resourceType": "DiagnosticReport",
        "basedOn": [
          {
            "identifier": {
              "type": {
                "coding": [
                  {
                    "code": "FILL",
                    "system": "http://terminology.hl7.org/CodeSystem/v2-0203"
                  }
                ]
              },
              "value": "914694928301"
            },
            "reference": "urn:uuid:6703e057-3f4a-476b-a22e-ed54adccc8e1",
            "type": "ServiceRequest"
          }
        ],
        "category": [
          {
            "coding": [
              {
                "code": "GE",
                "system": "http://terminology.hl7.org/CodeSystem/v2-0074"
              }
            ]
          }
        ],
        "code": {
          "coding": [
            {
              "code": "B3051",
              "display": "HbA1c (IFCC traceable)"
            }
          ]
        },
        "effectiveDateTime": "2018-03-09T15:00:00+00:00",
        "identifier": [
          {
            "type": {
              "coding": [
                {
                  "code": "FILL",
                  "system": "http://terminology.hl7.org/CodeSystem/v2-0203"
                }
              ]
            },
            "value": "914694928301"
          }
        ],
        "issued": "2018-03-09T15:00:00+00:00",
        "performer": [
          {
            "display": "NHS North West Genomics",
            "identifier": {
              "system": "https://fhir.nhs.uk/Id/ods-organization-code",
              "value": "699X0"
            },
            "type": "Organization"
          }
        ],
        "result": [
          {
            "display": "HbA1c (IFCC traceable)",
            "reference": "urn:uuid:e0b4705f-25a0-4395-8040-e3b5b294c3ab",
            "type": "Observation"
          }
        ],
        "specimen": [
          {
            "reference": "urn:uuid:64e87ff2-5333-497c-b36a-811f19e66f1a",
            "type": "Specimen"
          }
        ],
        "status": "final",
        "subject": {
          "identifier": {
            "assigner": {
              "identifier": {
                "system": "https://fhir.nhs.uk/Id/ods-organization-code",
                "value": "X24"
              }
            },
            "system": "https://fhir.nhs.uk/Id/nhs-number",
            "type": {
              "coding": [
                {
                  "code": "NH",
                  "system": "http://terminology.hl7.org/CodeSystem/v2-0203"
                }
              ]
            },
            "value": "9737383257"
          },
          "reference": "urn:uuid:eb3b57f6-7b81-4177-a8f6-ebcb09f5d181"
        }
      }
    },
    {
      "fullUrl": "urn:uuid:b399fb48-07e5-4b05-ac53-151b7980dc48",
      "resource": {
        "resourceType": "Observation",
        "code": {
          "coding": [
            {
              "code": "B0300",
              "display": "White blood cell (WBC) count"
            }
          ]
        },
        "effectiveDateTime": "2018-03-09T15:00:00+00:00",
        "identifier": [
          {
            "type": {
              "coding": [
                {
                  "code": "FILL",
                  "system": "http://terminology.hl7.org/CodeSystem/v2-0203"
                }
              ]
            },
            "value": "914694928301"
          }
        ],
        "performer": [
          {
            "identifier": {
              "system": "https://fhir.nhs.uk/Id/ods-organization-code",
              "value": "699X0"
            },
            "type": "Organization"
          }
        ],
        "referenceRange": [
          {
            "text": "4.0-11.0"
          }
        ],
        "status": "final",
        "subject": {
          "identifier": {
            "assigner": {
              "identifier": {
                "system": "https://fhir.nhs.uk/Id/ods-organization-code",
                "value": "X24"
              }
            },
            "system": "https://fhir.nhs.uk/Id/nhs-number",
            "type": {
              "coding": [
                {
                  "code": "NH",
                  "system": "http://terminology.hl7.org/CodeSystem/v2-0203"
                }
              ]
            },
            "value": "9737383257"
          },
          "reference": "urn:uuid:eb3b57f6-7b81-4177-a8f6-ebcb09f5d181"
        },
        "valueQuantity": {
          "system": "http://unitsofmeasure.org",
          "unit": "x10\\S\\9/L",
          "value": 3.5
        }
      }
    },
    {
      "fullUrl": "urn:uuid:bededed2-937f-474d-a28d-63f04118e4bf",
      "resource": {
        "resourceType": "Observation",
        "code": {
          "coding": [
            {
              "code": "B0307",
              "display": "Haemoglobin (Hb)"
            }
          ]
        },
        "effectiveDateTime": "2018-03-09T15:00:00+00:00",
        "identifier": [
          {
            "type": {
              "coding": [
                {
                  "code": "FILL",
                  "system": "http://terminology.hl7.org/CodeSystem/v2-0203"
                }
              ]
            },
            "value": "914694928301"
          }
        ],
        "performer": [
          {
            "identifier": {
              "system": "https://fhir.nhs.uk/Id/ods-organization-code",
              "value": "699X0"
            },
            "type": "Organization"
          }
        ],
        "referenceRange": [
          {
            "text": "130-180"
          }
        ],
        "status": "final",
        "subject": {
          "identifier": {
            "assigner": {
              "identifier": {
                "system": "https://fhir.nhs.uk/Id/ods-organization-code",
                "value": "X24"
              }
            },
            "system": "https://fhir.nhs.uk/Id/nhs-number",
            "type": {
              "coding": [
                {
                  "code": "NH",
                  "system": "http://terminology.hl7.org/CodeSystem/v2-0203"
                }
              ]
            },
            "value": "9737383257"
          },
          "reference": "urn:uuid:eb3b57f6-7b81-4177-a8f6-ebcb09f5d181"
        },
        "valueQuantity": {
          "comparator": "<",
          "system": "http://unitsofmeasure.org",
          "unit": "g/L",
          "value": 149
        }
      }
    },
    {
      "fullUrl": "urn:uuid:a930e590-a95e-4ae0-b7d5-69acc7b95532",
      "resource": {
        "resourceType": "Observation",
        "code": {
          "coding": [
            {
              "code": "B0314",
              "display": "Platelet (PLT) count"
            }
          ]
        },
        "effectiveDateTime": "2018-03-09T15:00:00+00:00",
        "identifier": [
          {
            "type": {
              "coding": [
                {
                  "code": "FILL",
                  "system": "http://terminology.hl7.org/CodeSystem/v2-0203"
                }
              ]
            },
            "value": "914694928301"
          }
        ],
        "performer": [
          {
            "identifier": {
              "system": "https://fhir.nhs.uk/Id/ods-organization-code",
              "value": "699X0"
            },
            "type": "Organization"
          }
        ],
        "referenceRange": [
          {
            "text": "150-400"
          }
        ],
        "status": "final",
        "subject": {
          "identifier": {
            "assigner": {
              "identifier": {
                "system": "https://fhir.nhs.uk/Id/ods-organization-code",
                "value": "X24"
              }
            },
            "system": "https://fhir.nhs.uk/Id/nhs-number",
            "type": {
              "coding": [
                {
                  "code": "NH",
                  "system": "http://terminology.hl7.org/CodeSystem/v2-0203"
                }
              ]
            },
            "value": "9737383257"
          },
          "reference": "urn:uuid:eb3b57f6-7b81-4177-a8f6-ebcb09f5d181"
        },
        "valueQuantity": {
          "system": "http://unitsofmeasure.org",
          "unit": "x10\\S\\9/L",
          "value": 500
        }
      }
    },
    {
      "fullUrl": "urn:uuid:2d501f75-7a0b-4583-bb31-7ecf7338fadb",
      "resource": {
        "resourceType": "Observation",
        "code": {
          "coding": [
            {
              "code": "B0306",
              "display": "Red blood cell (RBC) count"
            }
          ]
        },
        "effectiveDateTime": "2018-03-09T15:00:00+00:00",
        "identifier": [
          {
            "type": {
              "coding": [
                {
                  "code": "FILL",
                  "system": "http://terminology.hl7.org/CodeSystem/v2-0203"
                }
              ]
            },
            "value": "914694928301"
          }
        ],
        "performer": [
          {
            "identifier": {
              "system": "https://fhir.nhs.uk/Id/ods-organization-code",
              "value": "699X0"
            },
            "type": "Organization"
          }
        ],
        "referenceRange": [
          {
            "text": "4.50-6.00"
          }
        ],
        "status": "final",
        "subject": {
          "identifier": {
            "assigner": {
              "identifier": {
                "system": "https://fhir.nhs.uk/Id/ods-organization-code",
                "value": "X24"
              }
            },
            "system": "https://fhir.nhs.uk/Id/nhs-number",
            "type": {
              "coding": [
                {
                  "code": "NH",
                  "system": "http://terminology.hl7.org/CodeSystem/v2-0203"
                }
              ]
            },
            "value": "9737383257"
          },
          "reference": "urn:uuid:eb3b57f6-7b81-4177-a8f6-ebcb09f5d181"
        },
        "valueQuantity": {
          "system": "http://unitsofmeasure.org",
          "unit": "x10\\S\\12/L",
          "value": 6.00
        }
      }
    },
    {
      "fullUrl": "urn:uuid:e95f8bfd-3ba2-460a-abf9-9cfc90e1b09a",
      "resource": {
        "resourceType": "Observation",
        "code": {
          "coding": [
            {
              "code": "B0309",
              "display": "Mean cell volume (MCV)"
            }
          ]
        },
        "effectiveDateTime": "2018-03-09T15:00:00+00:00",
        "identifier": [
          {
            "type": {
              "coding": [
                {
                  "code": "FILL",
                  "system": "http://terminology.hl7.org/CodeSystem/v2-0203"
                }
              ]
            },
            "value": "914694928301"
          }
        ],
        "performer": [
          {
            "identifier": {
              "system": "https://fhir.nhs.uk/Id/ods-organization-code",
              "value": "699X0"
            },
            "type": "Organization"
          }
        ],
        "referenceRange": [
          {
            "text": "80-100"
          }
        ],
        "status": "final",
        "subject": {
          "identifier": {
            "assigner": {
              "identifier": {
                "system": "https://fhir.nhs.uk/Id/ods-organization-code",
                "value": "X24"
              }
            },
            "system": "https://fhir.nhs.uk/Id/nhs-number",
            "type": {
              "coding": [
                {
                  "code": "NH",
                  "system": "http://terminology.hl7.org/CodeSystem/v2-0203"
                }
              ]
            },
            "value": "9737383257"
          },
          "reference": "urn:uuid:eb3b57f6-7b81-4177-a8f6-ebcb09f5d181"
        },
        "valueCodeableConcept": {
          "coding": [
            {
              "code": "NA",
              "display": "Not assayed",
              "system": "ACME"
            }
          ]
        }
      }
    },
    {
      "fullUrl": "urn:uuid:32aa89ec-957d-4a1c-b4d7-ad39ff5e54a8",
      "resource": {
        "resourceType": "Specimen",
        "collection": {
          "collectedDateTime": "2018-03-09T14:00:00+00:00"
        },
        "identifier": [
          {
            "type": {
              "coding": [
                {
                  "code": "FILL",
                  "system": "http://terminology.hl7.org/CodeSystem/v2-0203"
                }
              ]
            },
            "value": "9146949283"
          }
        ],
        "receivedTime": "2018-03-09T15:00:00+00:00",
        "status": "unavailable",
        "subject": {
          "identifier": {
            "assigner": {
              "identifier": {
                "system": "https://fhir.nhs.uk/Id/ods-organization-code",
                "value": "X24"
              }
            },
            "system": "https://fhir.nhs.uk/Id/nhs-number",
            "type": {
              "coding": [
                {
                  "code": "NH",
                  "system": "http://terminology.hl7.org/CodeSystem/v2-0203"
                }
              ]
            },
            "value": "9737383257"
          },
          "reference": "urn:uuid:eb3b57f6-7b81-4177-a8f6-ebcb09f5d181"
        },
        "type": {
          "coding": [
            {
              "code": "BLOO",
              "display": "Blood",
              "system": "ACME"
            }
          ]
        }
      }
    },
    {
      "fullUrl": "urn:uuid:20fdd267-ffd1-4c00-976b-ec9d1cd21bdb",
      "resource": {
        "resourceType": "DiagnosticReport",
        "category": [
          {
            "coding": [
              {
                "code": "GE",
                "system": "http://terminology.hl7.org/CodeSystem/v2-0074"
              }
            ]
          }
        ],
        "code": {
          "coding": [
            {
              "code": "B0001",
              "display": "Full blood count"
            }
          ]
        },
        "effectiveDateTime": "2018-03-09T15:00:00+00:00",
        "identifier": [
          {
            "type": {
              "coding": [
                {
                  "code": "FILL",
                  "system": "http://terminology.hl7.org/CodeSystem/v2-0203"
                }
              ]
            },
            "value": "914694928301"
          }
        ],
        "issued": "2018-03-09T15:00:00+00:00",
        "performer": [
          {
            "display": "NHS North West Genomics",
            "identifier": {
              "system": "https://fhir.nhs.uk/Id/ods-organization-code",
              "value": "699X0"
            },
            "type": "Organization"
          }
        ],
        "result": [
          {
            "display": "White blood cell (WBC) count",
            "reference": "urn:uuid:b399fb48-07e5-4b05-ac53-151b7980dc48",
            "type": "Observation"
          },
          {
            "display": "Haemoglobin (Hb)",
            "reference": "urn:uuid:bededed2-937f-474d-a28d-63f04118e4bf",
            "type": "Observation"
          },
          {
            "display": "Platelet (PLT) count",
            "reference": "urn:uuid:a930e590-a95e-4ae0-b7d5-69acc7b95532",
            "type": "Observation"
          },
          {
            "display": "Red blood cell (RBC) count",
            "reference": "urn:uuid:2d501f75-7a0b-4583-bb31-7ecf7338fadb",
            "type": "Observation"
          },
          {
            "display": "Mean cell volume (MCV)",
            "reference": "urn:uuid:e95f8bfd-3ba2-460a-abf9-9cfc90e1b09a",
            "type": "Observation"
          }
        ],
        "specimen": [
          {
            "reference": "urn:uuid:32aa89ec-957d-4a1c-b4d7-ad39ff5e54a8",
            "type": "Specimen"
          }
        ],
        "status": "final",
        "subject": {
          "identifier": {
            "assigner": {
              "identifier": {
                "system": "https://fhir.nhs.uk/Id/ods-organization-code",
                "value": "X24"
              }
            },
            "system": "https://fhir.nhs.uk/Id/nhs-number",
            "type": {
              "coding": [
                {
                  "code": "NH",
                  "system": "http://terminology.hl7.org/CodeSystem/v2-0203"
                }
              ]
            },
            "value": "9737383257"
          },
          "reference": "urn:uuid:eb3b57f6-7b81-4177-a8f6-ebcb09f5d181"
        }
      }
    },
    {
      "fullUrl": "urn:uuid:392a4411-a0f7-45f8-bde2-8eb9a5e42cce",
      "resource": {
        "resourceType": "Binary",
        "contentType": "application/pdf",
        "data": "JVBERi0xLjQKJcOkw7zDtsOfCjIgMCBvYmoKPDw...EyNDk0IDAwMDAwIG4gCnRyYWlsZXIKPDwvU2l6ZS"
      }
    },
    {
      "fullUrl": "urn:uuid:801faa54-0e9a-464c-8808-c296c27fadc3",
      "resource": {
        "resourceType": "DocumentReference",
        "content": [
          {
            "attachment": {
              "contentType": "application/pdf",
              "url": "urn:uuid:392a4411-a0f7-45f8-bde2-8eb9a5e42cce"
            }
          }
        ],
        "context": {
          "period": {
            "end": "2018-11-09T12:38:51+00:00",
            "start": "2018-11-09T12:38:51+00:00"
          },
          "related": [
            {
              "identifier": {
                "assigner": {
                  "identifier": {
                    "system": "https://fhir.nhs.uk/Id/ods-organization-code",
                    "value": "7A4BV"
                  }
                },
                "type": {
                  "coding": [
                    {
                      "code": "FILL",
                      "system": "http://terminology.hl7.org/CodeSystem/v2-0203"
                    }
                  ]
                },
                "value": "287018"
              },
              "reference": "urn:uuid:dd730957-7261-450a-99aa-9d043916c68d",
              "type": "DiagnosticReport"
            }
          ]
        },
        "custodian": {
          "identifier": {
            "system": "https://fhir.nhs.uk/Id/ods-organization-code",
            "value": "699X0"
          },
          "type": "Organization"
        },
        "date": "2018-11-09T12:38:51+00:00",
        "identifier": [
          {
            "assigner": {
              "identifier": {
                "system": "https://fhir.nhs.uk/Id/ods-organization-code",
                "value": "7A4BV"
              }
            },
            "type": {
              "coding": [
                {
                  "code": "FILL",
                  "system": "http://terminology.hl7.org/CodeSystem/v2-0203"
                }
              ]
            },
            "value": "287018"
          }
        ],
        "status": "current",
        "subject": {
          "identifier": {
            "assigner": {
              "identifier": {
                "system": "https://fhir.nhs.uk/Id/ods-organization-code",
                "value": "X24"
              }
            },
            "system": "https://fhir.nhs.uk/Id/nhs-number",
            "type": {
              "coding": [
                {
                  "code": "NH",
                  "system": "http://terminology.hl7.org/CodeSystem/v2-0203"
                }
              ]
            },
            "value": "9737383257"
          },
          "reference": "urn:uuid:eb3b57f6-7b81-4177-a8f6-ebcb09f5d181"
        },
        "type": {
          "coding": [
            {
              "code": "CATH",
              "display": "Cardiac Catheter Report",
              "system": "L"
            }
          ]
        }
      }
    },
    {
      "fullUrl": "urn:uuid:87b44c82-5fac-45fe-9d47-89cb825e7022",
      "resource": {
        "resourceType": "Binary",
        "contentType": "application/pdf",
        "data": "AxNi9Sb290IDE0IDAgUgovSW5mbyAxNSAwIFIKL0lEIFsgPE...KPj4Kc3RhcnR4cmVmCjEyNzg3CiUlRU9GCg=="
      }
    },
    {
      "fullUrl": "urn:uuid:12f292a2-9428-4da9-8fbb-8a20f4b156be",
      "resource": {
        "resourceType": "DocumentReference",
        "content": [
          {
            "attachment": {
              "contentType": "application/pdf",
              "url": "urn:uuid:87b44c82-5fac-45fe-9d47-89cb825e7022"
            }
          }
        ],
        "context": {
          "period": {
            "end": "2018-11-09T12:38:51+00:00",
            "start": "2018-11-09T12:38:51+00:00"
          },
          "related": [
            {
              "identifier": {
                "assigner": {
                  "identifier": {
                    "system": "https://fhir.nhs.uk/Id/ods-organization-code",
                    "value": "7A4BV"
                  }
                },
                "type": {
                  "coding": [
                    {
                      "code": "FILL",
                      "system": "http://terminology.hl7.org/CodeSystem/v2-0203"
                    }
                  ]
                },
                "value": "287018"
              },
              "reference": "urn:uuid:dd730957-7261-450a-99aa-9d043916c68d",
              "type": "DiagnosticReport"
            }
          ]
        },
        "custodian": {
          "identifier": {
            "system": "https://fhir.nhs.uk/Id/ods-organization-code",
            "value": "699X0"
          },
          "type": "Organization"
        },
        "date": "2018-11-09T12:38:51+00:00",
        "identifier": [
          {
            "assigner": {
              "identifier": {
                "system": "https://fhir.nhs.uk/Id/ods-organization-code",
                "value": "7A4BV"
              }
            },
            "type": {
              "coding": [
                {
                  "code": "FILL",
                  "system": "http://terminology.hl7.org/CodeSystem/v2-0203"
                }
              ]
            },
            "value": "287018"
          }
        ],
        "status": "current",
        "subject": {
          "identifier": {
            "assigner": {
              "identifier": {
                "system": "https://fhir.nhs.uk/Id/ods-organization-code",
                "value": "X24"
              }
            },
            "system": "https://fhir.nhs.uk/Id/nhs-number",
            "type": {
              "coding": [
                {
                  "code": "NH",
                  "system": "http://terminology.hl7.org/CodeSystem/v2-0203"
                }
              ]
            },
            "value": "9737383257"
          },
          "reference": "urn:uuid:eb3b57f6-7b81-4177-a8f6-ebcb09f5d181"
        },
        "type": {
          "coding": [
            {
              "code": "CATH",
              "display": "Cardiac Catheter Report",
              "system": "L"
            }
          ]
        }
      }
    },
    {
      "fullUrl": "urn:uuid:dd730957-7261-450a-99aa-9d043916c68d",
      "resource": {
        "resourceType": "DiagnosticReport",
        "category": [
          {
            "coding": [
              {
                "code": "GE",
                "system": "http://terminology.hl7.org/CodeSystem/v2-0074"
              }
            ]
          }
        ],
        "code": {
          "coding": [
            {
              "code": "CATH",
              "display": "Cardiac Catheter Report",
              "system": "L"
            }
          ]
        },
        "effectiveDateTime": "2018-11-09T12:38:51+00:00",
        "extension": [
          {
            "extension": [
              {
                "url": "reference",
                "valueReference": {
                  "display": "Cardiac Catheter Report",
                  "reference": "urn:uuid:801faa54-0e9a-464c-8808-c296c27fadc3",
                  "type": "DocumentReference"
                }
              },
              {
                "url": "type",
                "valueCodeableConcept": {
                  "coding": [
                    {
                      "code": "SCI",
                      "system": "http://hl7.org/fhir/diagnosticreport-relevant-information-types"
                    }
                  ]
                }
              }
            ],
            "url": "http://hl7.org/fhir/5.0/StructureDefinition/extension-DiagnosticReport.supportingInfo"
          },
          {
            "extension": [
              {
                "url": "reference",
                "valueReference": {
                  "display": "Cardiac Catheter Report",
                  "reference": "urn:uuid:12f292a2-9428-4da9-8fbb-8a20f4b156be",
                  "type": "DocumentReference"
                }
              },
              {
                "url": "type",
                "valueCodeableConcept": {
                  "coding": [
                    {
                      "code": "SCI",
                      "system": "http://hl7.org/fhir/diagnosticreport-relevant-information-types"
                    }
                  ]
                }
              }
            ],
            "url": "http://hl7.org/fhir/5.0/StructureDefinition/extension-DiagnosticReport.supportingInfo"
          }
        ],
        "identifier": [
          {
            "assigner": {
              "identifier": {
                "system": "https://fhir.nhs.uk/Id/ods-organization-code",
                "value": "7A4BV"
              }
            },
            "type": {
              "coding": [
                {
                  "code": "FILL",
                  "system": "http://terminology.hl7.org/CodeSystem/v2-0203"
                }
              ]
            },
            "value": "287018"
          }
        ],
        "issued": "2018-11-09T12:48:18+00:00",
        "performer": [
          {
            "display": "NHS North West Genomics",
            "identifier": {
              "system": "https://fhir.nhs.uk/Id/ods-organization-code",
              "value": "699X0"
            },
            "type": "Organization"
          }
        ],
        "status": "partial",
        "subject": {
          "identifier": {
            "assigner": {
              "identifier": {
                "system": "https://fhir.nhs.uk/Id/ods-organization-code",
                "value": "X24"
              }
            },
            "system": "https://fhir.nhs.uk/Id/nhs-number",
            "type": {
              "coding": [
                {
                  "code": "NH",
                  "system": "http://terminology.hl7.org/CodeSystem/v2-0203"
                }
              ]
            },
            "value": "9737383257"
          },
          "reference": "urn:uuid:eb3b57f6-7b81-4177-a8f6-ebcb09f5d181"
        }
      }
    },
    {
      "fullUrl": "urn:uuid:7c9197e9-810f-4889-9337-429b969b10c4",
      "resource": {
        "resourceType": "Binary",
        "contentType": "application/pdf",
        "data": "JVBERi0xLjQKJcOkw7zDtsOfCjIgMCBvYm...VmCjEyNzg3CiUlRU9GCg=="
      }
    },
    {
      "fullUrl": "urn:uuid:1ab31caf-1637-4bce-9310-64ba7cc66524",
      "resource": {
        "resourceType": "DocumentReference",
        "content": [
          {
            "attachment": {
              "contentType": "application/pdf",
              "url": "urn:uuid:7c9197e9-810f-4889-9337-429b969b10c4"
            }
          }
        ],
        "context": {
          "period": {
            "end": "2018-11-09T12:38:51+00:00",
            "start": "2018-11-09T12:38:51+00:00"
          },
          "related": [
            {
              "identifier": {
                "assigner": {
                  "identifier": {
                    "system": "https://fhir.nhs.uk/Id/ods-organization-code",
                    "value": "7A4BV"
                  }
                },
                "type": {
                  "coding": [
                    {
                      "code": "FILL",
                      "system": "http://terminology.hl7.org/CodeSystem/v2-0203"
                    }
                  ]
                },
                "value": "A28701"
              },
              "reference": "urn:uuid:1420fdbb-bdb4-4cc7-b10c-01f97868f3f7",
              "type": "DiagnosticReport"
            }
          ]
        },
        "custodian": {
          "identifier": {
            "system": "https://fhir.nhs.uk/Id/ods-organization-code",
            "value": "699X0"
          },
          "type": "Organization"
        },
        "date": "2018-11-09T12:38:51+00:00",
        "identifier": [
          {
            "assigner": {
              "identifier": {
                "system": "https://fhir.nhs.uk/Id/ods-organization-code",
                "value": "7A4BV"
              }
            },
            "type": {
              "coding": [
                {
                  "code": "FILL",
                  "system": "http://terminology.hl7.org/CodeSystem/v2-0203"
                }
              ]
            },
            "value": "A28701"
          }
        ],
        "status": "current",
        "subject": {
          "identifier": {
            "assigner": {
              "identifier": {
                "system": "https://fhir.nhs.uk/Id/ods-organization-code",
                "value": "X24"
              }
            },
            "system": "https://fhir.nhs.uk/Id/nhs-number",
            "type": {
              "coding": [
                {
                  "code": "NH",
                  "system": "http://terminology.hl7.org/CodeSystem/v2-0203"
                }
              ]
            },
            "value": "9737383257"
          },
          "reference": "urn:uuid:eb3b57f6-7b81-4177-a8f6-ebcb09f5d181"
        },
        "type": {
          "coding": [
            {
              "code": "Appointment",
              "display": "Appointment Letter",
              "system": "L"
            }
          ]
        }
      }
    },
    {
      "fullUrl": "urn:uuid:1420fdbb-bdb4-4cc7-b10c-01f97868f3f7",
      "resource": {
        "resourceType": "DiagnosticReport",
        "category": [
          {
            "coding": [
              {
                "code": "GE",
                "system": "http://terminology.hl7.org/CodeSystem/v2-0074"
              }
            ]
          }
        ],
        "code": {
          "coding": [
            {
              "code": "Appointment",
              "display": "AppointmentLetter",
              "system": "L"
            }
          ]
        },
        "effectiveDateTime": "2018-11-09T12:38:51+00:00",
        "extension": [
          {
            "extension": [
              {
                "url": "reference",
                "valueReference": {
                  "display": "Appointment Letter",
                  "reference": "urn:uuid:1ab31caf-1637-4bce-9310-64ba7cc66524",
                  "type": "DocumentReference"
                }
              },
              {
                "url": "type",
                "valueCodeableConcept": {
                  "coding": [
                    {
                      "code": "SCI",
                      "system": "http://hl7.org/fhir/diagnosticreport-relevant-information-types"
                    }
                  ]
                }
              }
            ],
            "url": "http://hl7.org/fhir/5.0/StructureDefinition/extension-DiagnosticReport.supportingInfo"
          }
        ],
        "identifier": [
          {
            "assigner": {
              "identifier": {
                "system": "https://fhir.nhs.uk/Id/ods-organization-code",
                "value": "7A4BV"
              }
            },
            "type": {
              "coding": [
                {
                  "code": "FILL",
                  "system": "http://terminology.hl7.org/CodeSystem/v2-0203"
                }
              ]
            },
            "value": "A28701"
          }
        ],
        "issued": "2018-11-09T12:48:18+00:00",
        "performer": [
          {
            "display": "NHS North West Genomics",
            "identifier": {
              "system": "https://fhir.nhs.uk/Id/ods-organization-code",
              "value": "699X0"
            },
            "type": "Organization"
          }
        ],
        "status": "partial",
        "subject": {
          "identifier": {
            "assigner": {
              "identifier": {
                "system": "https://fhir.nhs.uk/Id/ods-organization-code",
                "value": "X24"
              }
            },
            "system": "https://fhir.nhs.uk/Id/nhs-number",
            "type": {
              "coding": [
                {
                  "code": "NH",
                  "system": "http://terminology.hl7.org/CodeSystem/v2-0203"
                }
              ]
            },
            "value": "9737383257"
          },
          "reference": "urn:uuid:eb3b57f6-7b81-4177-a8f6-ebcb09f5d181"
        }
      }
    },
    {
      "fullUrl": "urn:uuid:f2104e22-90f3-48c8-a161-ec96cac3d0fd",
      "resource": {
        "resourceType": "Observation",
        "code": {
          "coding": [
            {
              "code": "INTER",
              "display": "INTERPRETATION",
              "system": "L"
            }
          ]
        },
        "effectiveDateTime": "2019-05-14T10:24:17+00:00",
        "identifier": [
          {
            "type": {
              "coding": [
                {
                  "code": "FILL",
                  "system": "http://terminology.hl7.org/CodeSystem/v2-0203"
                }
              ]
            },
            "value": "190000041:27491"
          }
        ],
        "note": [
          {
            "text": "Interpreted by: ACME Super User, Signed on 05/14/2019 at 10:24\\n"
          }
        ],
        "performer": [
          {
            "identifier": {
              "system": "https://fhir.nhs.uk/Id/ods-organization-code",
              "value": "699X0"
            },
            "type": "Organization"
          }
        ],
        "status": "final",
        "subject": {
          "identifier": {
            "assigner": {
              "identifier": {
                "system": "https://fhir.nhs.uk/Id/ods-organization-code",
                "value": "X24"
              }
            },
            "system": "https://fhir.nhs.uk/Id/nhs-number",
            "type": {
              "coding": [
                {
                  "code": "NH",
                  "system": "http://terminology.hl7.org/CodeSystem/v2-0203"
                }
              ]
            },
            "value": "9737383257"
          },
          "reference": "urn:uuid:eb3b57f6-7b81-4177-a8f6-ebcb09f5d181"
        },
        "valueString": "rwtu"
      }
    },
    {
      "fullUrl": "urn:uuid:9a19aef6-b609-4973-a39f-3147af56755b",
      "resource": {
        "resourceType": "Observation",
        "code": {
          "coding": [
            {
              "code": "RESTE",
              "display": "Reason for testing",
              "system": "L"
            }
          ]
        },
        "effectiveDateTime": "2019-05-14T10:24:17+00:00",
        "identifier": [
          {
            "type": {
              "coding": [
                {
                  "code": "FILL",
                  "system": "http://terminology.hl7.org/CodeSystem/v2-0203"
                }
              ]
            },
            "value": "190000041:27491"
          }
        ],
        "performer": [
          {
            "identifier": {
              "system": "https://fhir.nhs.uk/Id/ods-organization-code",
              "value": "699X0"
            },
            "type": "Organization"
          }
        ],
        "status": "final",
        "subject": {
          "identifier": {
            "assigner": {
              "identifier": {
                "system": "https://fhir.nhs.uk/Id/ods-organization-code",
                "value": "X24"
              }
            },
            "system": "https://fhir.nhs.uk/Id/nhs-number",
            "type": {
              "coding": [
                {
                  "code": "NH",
                  "system": "http://terminology.hl7.org/CodeSystem/v2-0203"
                }
              ]
            },
            "value": "9737383257"
          },
          "reference": "urn:uuid:eb3b57f6-7b81-4177-a8f6-ebcb09f5d181"
        },
        "valueString": "erw"
      }
    },
    {
      "fullUrl": "urn:uuid:11f1ab1c-ea44-43e1-97cf-8c074715c54c",
      "resource": {
        "resourceType": "Observation",
        "code": {
          "coding": [
            {
              "code": "TMETH",
              "display": "Test Methodology",
              "system": "L"
            }
          ]
        },
        "effectiveDateTime": "2019-05-14T10:24:17+00:00",
        "identifier": [
          {
            "type": {
              "coding": [
                {
                  "code": "FILL",
                  "system": "http://terminology.hl7.org/CodeSystem/v2-0203"
                }
              ]
            },
            "value": "190000041:27491"
          }
        ],
        "performer": [
          {
            "identifier": {
              "system": "https://fhir.nhs.uk/Id/ods-organization-code",
              "value": "699X0"
            },
            "type": "Organization"
          }
        ],
        "status": "final",
        "subject": {
          "identifier": {
            "assigner": {
              "identifier": {
                "system": "https://fhir.nhs.uk/Id/ods-organization-code",
                "value": "X24"
              }
            },
            "system": "https://fhir.nhs.uk/Id/nhs-number",
            "type": {
              "coding": [
                {
                  "code": "NH",
                  "system": "http://terminology.hl7.org/CodeSystem/v2-0203"
                }
              ]
            },
            "value": "9737383257"
          },
          "reference": "urn:uuid:eb3b57f6-7b81-4177-a8f6-ebcb09f5d181"
        },
        "valueString": "sfjg"
      }
    },
    {
      "fullUrl": "urn:uuid:49a612cf-e330-4c36-9ba3-f707a9c3d576",
      "resource": {
        "resourceType": "Observation",
        "code": {
          "coding": [
            {
              "code": "RESUM",
              "display": "Result summary",
              "system": "L"
            }
          ]
        },
        "effectiveDateTime": "2019-05-14T10:24:17+00:00",
        "identifier": [
          {
            "type": {
              "coding": [
                {
                  "code": "FILL",
                  "system": "http://terminology.hl7.org/CodeSystem/v2-0203"
                }
              ]
            },
            "value": "190000041:27491"
          }
        ],
        "performer": [
          {
            "identifier": {
              "system": "https://fhir.nhs.uk/Id/ods-organization-code",
              "value": "699X0"
            },
            "type": "Organization"
          }
        ],
        "status": "final",
        "subject": {
          "identifier": {
            "assigner": {
              "identifier": {
                "system": "https://fhir.nhs.uk/Id/ods-organization-code",
                "value": "X24"
              }
            },
            "system": "https://fhir.nhs.uk/Id/nhs-number",
            "type": {
              "coding": [
                {
                  "code": "NH",
                  "system": "http://terminology.hl7.org/CodeSystem/v2-0203"
                }
              ]
            },
            "value": "9737383257"
          },
          "reference": "urn:uuid:eb3b57f6-7b81-4177-a8f6-ebcb09f5d181"
        },
        "valueString": "tyityu"
      }
    },
    {
      "fullUrl": "urn:uuid:1dd6b94e-bcb9-412b-9b53-c1979dd1b40a",
      "resource": {
        "resourceType": "Observation",
        "code": {
          "coding": [
            {
              "code": "PATPH",
              "display": "Patient phenotype",
              "system": "L"
            }
          ]
        },
        "effectiveDateTime": "2019-05-14T10:24:17+00:00",
        "identifier": [
          {
            "type": {
              "coding": [
                {
                  "code": "FILL",
                  "system": "http://terminology.hl7.org/CodeSystem/v2-0203"
                }
              ]
            },
            "value": "190000041:27491"
          }
        ],
        "performer": [
          {
            "identifier": {
              "system": "https://fhir.nhs.uk/Id/ods-organization-code",
              "value": "699X0"
            },
            "type": "Organization"
          }
        ],
        "status": "final",
        "subject": {
          "identifier": {
            "assigner": {
              "identifier": {
                "system": "https://fhir.nhs.uk/Id/ods-organization-code",
                "value": "X24"
              }
            },
            "system": "https://fhir.nhs.uk/Id/nhs-number",
            "type": {
              "coding": [
                {
                  "code": "NH",
                  "system": "http://terminology.hl7.org/CodeSystem/v2-0203"
                }
              ]
            },
            "value": "9737383257"
          },
          "reference": "urn:uuid:eb3b57f6-7b81-4177-a8f6-ebcb09f5d181"
        },
        "valueString": "ghfjg"
      }
    },
    {
      "fullUrl": "urn:uuid:392f17af-5fcf-415a-8836-9a60a41525f6",
      "resource": {
        "resourceType": "Observation",
        "code": {
          "coding": [
            {
              "code": "FOLL",
              "display": "Follow-up",
              "system": "L"
            }
          ]
        },
        "effectiveDateTime": "2019-05-14T10:24:17+00:00",
        "identifier": [
          {
            "type": {
              "coding": [
                {
                  "code": "FILL",
                  "system": "http://terminology.hl7.org/CodeSystem/v2-0203"
                }
              ]
            },
            "value": "190000041:27491"
          }
        ],
        "performer": [
          {
            "identifier": {
              "system": "https://fhir.nhs.uk/Id/ods-organization-code",
              "value": "699X0"
            },
            "type": "Organization"
          }
        ],
        "status": "final",
        "subject": {
          "identifier": {
            "assigner": {
              "identifier": {
                "system": "https://fhir.nhs.uk/Id/ods-organization-code",
                "value": "X24"
              }
            },
            "system": "https://fhir.nhs.uk/Id/nhs-number",
            "type": {
              "coding": [
                {
                  "code": "NH",
                  "system": "http://terminology.hl7.org/CodeSystem/v2-0203"
                }
              ]
            },
            "value": "9737383257"
          },
          "reference": "urn:uuid:eb3b57f6-7b81-4177-a8f6-ebcb09f5d181"
        },
        "valueString": "yue"
      }
    },
    {
      "fullUrl": "urn:uuid:e6a8b3a1-b210-430d-8a3b-81ed108cc6c3",
      "resource": {
        "resourceType": "Binary",
        "contentType": "application/pdf",
        "data": ""
      }
    },
    {
      "fullUrl": "urn:uuid:5ba5b1de-1440-4bb5-8107-b52d9663e3ce",
      "resource": {
        "resourceType": "DocumentReference",
        "content": [
          {
            "attachment": {
              "contentType": "application/pdf",
              "url": "urn:uuid:e6a8b3a1-b210-430d-8a3b-81ed108cc6c3"
            }
          }
        ],
        "context": {
          "period": {
            "end": "2019-05-14T10:24:17+00:00",
            "start": "2019-05-14T10:24:17+00:00"
          },
          "related": [
            {
              "identifier": {
                "type": {
                  "coding": [
                    {
                      "code": "FILL",
                      "system": "http://terminology.hl7.org/CodeSystem/v2-0203"
                    }
                  ]
                },
                "value": "190000041:27491"
              },
              "reference": "urn:uuid:ea25e58b-a789-46c0-89cc-4cd502aa3277",
              "type": "DiagnosticReport"
            }
          ]
        },
        "custodian": {
          "identifier": {
            "system": "https://fhir.nhs.uk/Id/ods-organization-code",
            "value": "699X0"
          },
          "type": "Organization"
        },
        "date": "2019-05-14T10:24:17+00:00",
        "identifier": [
          {
            "type": {
              "coding": [
                {
                  "code": "FILL",
                  "system": "http://terminology.hl7.org/CodeSystem/v2-0203"
                }
              ]
            },
            "value": "190000041:27491"
          }
        ],
        "status": "current",
        "subject": {
          "identifier": {
            "assigner": {
              "identifier": {
                "system": "https://fhir.nhs.uk/Id/ods-organization-code",
                "value": "X24"
              }
            },
            "system": "https://fhir.nhs.uk/Id/nhs-number",
            "type": {
              "coding": [
                {
                  "code": "NH",
                  "system": "http://terminology.hl7.org/CodeSystem/v2-0203"
                }
              ]
            },
            "value": "9737383257"
          },
          "reference": "urn:uuid:eb3b57f6-7b81-4177-a8f6-ebcb09f5d181"
        },
        "type": {
          "coding": [
            {
              "code": "823781000000108",
              "display": "MDT (multidisciplinary team) letter",
              "system": "http://snomed.info/sct"
            }
          ]
        }
      }
    },
    {
      "fullUrl": "urn:uuid:b0ca98f8-e6d3-487e-bac2-2f363e79065b",
      "resource": {
        "resourceType": "Observation",
        "code": {
          "coding": [
            {
              "code": "RESLT",
              "display": "Result",
              "system": "L"
            }
          ]
        },
        "effectiveDateTime": "2019-05-14T10:24:17+00:00",
        "identifier": [
          {
            "type": {
              "coding": [
                {
                  "code": "FILL",
                  "system": "http://terminology.hl7.org/CodeSystem/v2-0203"
                }
              ]
            },
            "value": "190000041:27491"
          }
        ],
        "performer": [
          {
            "identifier": {
              "system": "https://fhir.nhs.uk/Id/ods-organization-code",
              "value": "699X0"
            },
            "type": "Organization"
          }
        ],
        "status": "final",
        "subject": {
          "identifier": {
            "assigner": {
              "identifier": {
                "system": "https://fhir.nhs.uk/Id/ods-organization-code",
                "value": "X24"
              }
            },
            "system": "https://fhir.nhs.uk/Id/nhs-number",
            "type": {
              "coding": [
                {
                  "code": "NH",
                  "system": "http://terminology.hl7.org/CodeSystem/v2-0203"
                }
              ]
            },
            "value": "9737383257"
          },
          "reference": "urn:uuid:eb3b57f6-7b81-4177-a8f6-ebcb09f5d181"
        },
        "valueString": "dhjhd"
      }
    },
    {
      "fullUrl": "urn:uuid:927558dc-f0a8-4846-952a-d9e2c52300bf",
      "resource": {
        "resourceType": "Observation",
        "code": {
          "coding": [
            {
              "code": "GRFALN1",
              "display": "AlphaNumeric Generic Result Field 1",
              "system": "L"
            }
          ]
        },
        "effectiveDateTime": "2019-05-14T10:23:35+00:00",
        "identifier": [
          {
            "type": {
              "coding": [
                {
                  "code": "FILL",
                  "system": "http://terminology.hl7.org/CodeSystem/v2-0203"
                }
              ]
            },
            "value": "190000041:27491"
          }
        ],
        "performer": [
          {
            "identifier": {
              "system": "https://fhir.nhs.uk/Id/ods-organization-code",
              "value": "699X0"
            },
            "type": "Organization"
          }
        ],
        "status": "final",
        "subject": {
          "identifier": {
            "assigner": {
              "identifier": {
                "system": "https://fhir.nhs.uk/Id/ods-organization-code",
                "value": "X24"
              }
            },
            "system": "https://fhir.nhs.uk/Id/nhs-number",
            "type": {
              "coding": [
                {
                  "code": "NH",
                  "system": "http://terminology.hl7.org/CodeSystem/v2-0203"
                }
              ]
            },
            "value": "9737383257"
          },
          "reference": "urn:uuid:eb3b57f6-7b81-4177-a8f6-ebcb09f5d181"
        },
        "valueString": "234dfsgsg"
      }
    },
    {
      "fullUrl": "urn:uuid:44a88206-8d45-473b-864e-356887e1e078",
      "resource": {
        "resourceType": "Binary",
        "contentType": "application/pdf",
        "data": "JVBERi0xLjMKJeLjz9MKMiAwIG9iago8PC..."
      }
    },
    {
      "fullUrl": "urn:uuid:031e99f9-9dea-4364-984c-54c885b4cbd0",
      "resource": {
        "resourceType": "DocumentReference",
        "content": [
          {
            "attachment": {
              "contentType": "application/pdf",
              "url": "urn:uuid:44a88206-8d45-473b-864e-356887e1e078"
            }
          }
        ],
        "context": {
          "period": {
            "end": "2019-05-14T10:23:35+00:00",
            "start": "2019-05-14T10:23:35+00:00"
          },
          "related": [
            {
              "identifier": {
                "type": {
                  "coding": [
                    {
                      "code": "FILL",
                      "system": "http://terminology.hl7.org/CodeSystem/v2-0203"
                    }
                  ]
                },
                "value": "190000041:27491"
              },
              "reference": "urn:uuid:ea25e58b-a789-46c0-89cc-4cd502aa3277",
              "type": "DiagnosticReport"
            }
          ]
        },
        "custodian": {
          "identifier": {
            "system": "https://fhir.nhs.uk/Id/ods-organization-code",
            "value": "699X0"
          },
          "type": "Organization"
        },
        "date": "2019-05-14T10:23:35+00:00",
        "identifier": [
          {
            "type": {
              "coding": [
                {
                  "code": "FILL",
                  "system": "http://terminology.hl7.org/CodeSystem/v2-0203"
                }
              ]
            },
            "value": "190000041:27491"
          }
        ],
        "status": "current",
        "subject": {
          "identifier": {
            "assigner": {
              "identifier": {
                "system": "https://fhir.nhs.uk/Id/ods-organization-code",
                "value": "X24"
              }
            },
            "system": "https://fhir.nhs.uk/Id/nhs-number",
            "type": {
              "coding": [
                {
                  "code": "NH",
                  "system": "http://terminology.hl7.org/CodeSystem/v2-0203"
                }
              ]
            },
            "value": "9737383257"
          },
          "reference": "urn:uuid:eb3b57f6-7b81-4177-a8f6-ebcb09f5d181"
        },
        "type": {
          "coding": [
            {
              "code": "MOLT",
              "display": "MOL TEST NAME",
              "system": "L"
            }
          ]
        }
      }
    },
    {
      "fullUrl": "urn:uuid:5a63be80-70e1-4b7f-847c-b9280780e3e7",
      "resource": {
        "resourceType": "DocumentReference",
        "content": [
          {
            "attachment": {
              "url": "http://documents.example.com/document123.pdf"
            }
          }
        ],
        "context": {
          "period": {
            "end": "2019-05-14T10:23:35+00:00",
            "start": "2019-05-14T10:23:35+00:00"
          },
          "related": [
            {
              "identifier": {
                "type": {
                  "coding": [
                    {
                      "code": "FILL",
                      "system": "http://terminology.hl7.org/CodeSystem/v2-0203"
                    }
                  ]
                },
                "value": "190000041:27491"
              },
              "reference": "urn:uuid:ea25e58b-a789-46c0-89cc-4cd502aa3277",
              "type": "DiagnosticReport"
            }
          ]
        },
        "custodian": {
          "identifier": {
            "system": "https://fhir.nhs.uk/Id/ods-organization-code",
            "value": "699X0"
          },
          "type": "Organization"
        },
        "date": "2019-05-14T10:23:35+00:00",
        "identifier": [
          {
            "type": {
              "coding": [
                {
                  "code": "FILL",
                  "system": "http://terminology.hl7.org/CodeSystem/v2-0203"
                }
              ]
            },
            "value": "190000041:27491"
          }
        ],
        "status": "current",
        "subject": {
          "identifier": {
            "assigner": {
              "identifier": {
                "system": "https://fhir.nhs.uk/Id/ods-organization-code",
                "value": "X24"
              }
            },
            "system": "https://fhir.nhs.uk/Id/nhs-number",
            "type": {
              "coding": [
                {
                  "code": "NH",
                  "system": "http://terminology.hl7.org/CodeSystem/v2-0203"
                }
              ]
            },
            "value": "9737383257"
          },
          "reference": "urn:uuid:eb3b57f6-7b81-4177-a8f6-ebcb09f5d181"
        },
        "type": {
          "coding": [
            {
              "code": "MOLT",
              "display": "MOL TEST NAME",
              "system": "L"
            }
          ]
        }
      }
    },
    {
      "fullUrl": "urn:uuid:ea4a431d-9507-4110-879f-d48b4b73c5d1",
      "resource": {
        "resourceType": "Specimen",
        "identifier": [
          {
            "type": {
              "coding": [
                {
                  "code": "PLAC",
                  "system": "http://terminology.hl7.org/CodeSystem/v2-0203"
                }
              ]
            },
            "value": "190000041:27491"
          }
        ],
        "receivedTime": "2019-05-14T10:20:00+00:00",
        "status": "unavailable",
        "subject": {
          "identifier": {
            "assigner": {
              "identifier": {
                "system": "https://fhir.nhs.uk/Id/ods-organization-code",
                "value": "X24"
              }
            },
            "system": "https://fhir.nhs.uk/Id/nhs-number",
            "type": {
              "coding": [
                {
                  "code": "NH",
                  "system": "http://terminology.hl7.org/CodeSystem/v2-0203"
                }
              ]
            },
            "value": "9737383257"
          },
          "reference": "urn:uuid:eb3b57f6-7b81-4177-a8f6-ebcb09f5d181"
        }
      }
    },
    {
      "fullUrl": "urn:uuid:ea25e58b-a789-46c0-89cc-4cd502aa3277",
      "resource": {
        "resourceType": "DiagnosticReport",
        "category": [
          {
            "coding": [
              {
                "code": "GE",
                "system": "http://terminology.hl7.org/CodeSystem/v2-0074"
              }
            ]
          }
        ],
        "code": {
          "coding": [
            {
              "code": "MOLT",
              "display": "MOL TEST NAME",
              "system": "L"
            }
          ]
        },
        "effectiveDateTime": "2019-05-14T10:20:00+00:00",
        "extension": [
          {
            "extension": [
              {
                "url": "reference",
                "valueReference": {
                  "display": "MDT (multidisciplinary team) letter",
                  "reference": "urn:uuid:5ba5b1de-1440-4bb5-8107-b52d9663e3ce",
                  "type": "DocumentReference"
                }
              },
              {
                "url": "type",
                "valueCodeableConcept": {
                  "coding": [
                    {
                      "code": "SCI",
                      "system": "http://hl7.org/fhir/diagnosticreport-relevant-information-types"
                    }
                  ]
                }
              }
            ],
            "url": "http://hl7.org/fhir/5.0/StructureDefinition/extension-DiagnosticReport.supportingInfo"
          },
          {
            "extension": [
              {
                "url": "reference",
                "valueReference": {
                  "display": "MOL TEST NAME",
                  "reference": "urn:uuid:031e99f9-9dea-4364-984c-54c885b4cbd0",
                  "type": "DocumentReference"
                }
              },
              {
                "url": "type",
                "valueCodeableConcept": {
                  "coding": [
                    {
                      "code": "SCI",
                      "system": "http://hl7.org/fhir/diagnosticreport-relevant-information-types"
                    }
                  ]
                }
              }
            ],
            "url": "http://hl7.org/fhir/5.0/StructureDefinition/extension-DiagnosticReport.supportingInfo"
          },
          {
            "extension": [
              {
                "url": "reference",
                "valueReference": {
                  "display": "MOL TEST NAME",
                  "reference": "urn:uuid:5a63be80-70e1-4b7f-847c-b9280780e3e7",
                  "type": "DocumentReference"
                }
              },
              {
                "url": "type",
                "valueCodeableConcept": {
                  "coding": [
                    {
                      "code": "SCI",
                      "system": "http://hl7.org/fhir/diagnosticreport-relevant-information-types"
                    }
                  ]
                }
              }
            ],
            "url": "http://hl7.org/fhir/5.0/StructureDefinition/extension-DiagnosticReport.supportingInfo"
          }
        ],
        "identifier": [
          {
            "type": {
              "coding": [
                {
                  "code": "FILL",
                  "system": "http://terminology.hl7.org/CodeSystem/v2-0203"
                }
              ]
            },
            "value": "190000041:27491"
          }
        ],
        "issued": "2019-05-14T10:24:17+00:00",
        "performer": [
          {
            "extension": [
              {
                "url": "http://hl7.org/fhir/StructureDefinition/event-performerFunction",
                "valueCodeableConcept": {
                  "coding": [
                    {
                      "code": "SPRF",
                      "system": "http://terminology.hl7.org/CodeSystem/v3-ParticipationType"
                    }
                  ]
                }
              }
            ]
          },
          {
            "display": "NHS North West Genomics",
            "identifier": {
              "system": "https://fhir.nhs.uk/Id/ods-organization-code",
              "value": "699X0"
            },
            "type": "Organization"
          }
        ],
        "result": [
          {
            "display": "INTERPRETATION",
            "reference": "urn:uuid:f2104e22-90f3-48c8-a161-ec96cac3d0fd",
            "type": "Observation"
          },
          {
            "display": "Reason for testing",
            "reference": "urn:uuid:9a19aef6-b609-4973-a39f-3147af56755b",
            "type": "Observation"
          },
          {
            "display": "Test Methodology",
            "reference": "urn:uuid:11f1ab1c-ea44-43e1-97cf-8c074715c54c",
            "type": "Observation"
          },
          {
            "display": "Result summary",
            "reference": "urn:uuid:49a612cf-e330-4c36-9ba3-f707a9c3d576",
            "type": "Observation"
          },
          {
            "display": "Patient phenotype",
            "reference": "urn:uuid:1dd6b94e-bcb9-412b-9b53-c1979dd1b40a",
            "type": "Observation"
          },
          {
            "display": "Follow-up",
            "reference": "urn:uuid:392f17af-5fcf-415a-8836-9a60a41525f6",
            "type": "Observation"
          },
          {
            "display": "Result",
            "reference": "urn:uuid:b0ca98f8-e6d3-487e-bac2-2f363e79065b",
            "type": "Observation"
          },
          {
            "display": "AlphaNumeric Generic Result Field 1",
            "reference": "urn:uuid:927558dc-f0a8-4846-952a-d9e2c52300bf",
            "type": "Observation"
          }
        ],
        "specimen": [
          {
            "reference": "urn:uuid:ea4a431d-9507-4110-879f-d48b4b73c5d1",
            "type": "Specimen"
          }
        ],
        "status": "final",
        "subject": {
          "identifier": {
            "assigner": {
              "identifier": {
                "system": "https://fhir.nhs.uk/Id/ods-organization-code",
                "value": "X24"
              }
            },
            "system": "https://fhir.nhs.uk/Id/nhs-number",
            "type": {
              "coding": [
                {
                  "code": "NH",
                  "system": "http://terminology.hl7.org/CodeSystem/v2-0203"
                }
              ]
            },
            "value": "9737383257"
          },
          "reference": "urn:uuid:eb3b57f6-7b81-4177-a8f6-ebcb09f5d181"
        }
      }
    }
  ],
  "identifier": {
    "value": "5051095-201905141025"
  },
  "timestamp": "2019-05-14T10:25:27+00:00",
  "type": "message"
}