{
  "resourceType": "Bundle",
  "entry": [
    {
      "fullUrl": "urn:uuid:7daeaf3a-beb6-457a-8884-b9ab0ee2db8d",
      "resource": {
        "resourceType": "MessageHeader",
        "destination": [
          {
            "endpoint": "https//fhir.mft.nhs.uk/Endpoint/cymru.nhs.uk",
            "receiver": {
              "identifier": {
                "system": "https://fhir.nhs.uk/Id/ods-organization-code",
                "value": "NHSWales"
              }
            }
          }
        ],
        "eventCoding": {
          "code": "R01",
          "system": "http://terminology.hl7.org/CodeSystem/v2-0003"
        },
        "focus": [
          {
            "reference": "urn:uuid:4375ffa9-e805-4e2d-91d4-60da4fea0f5d"
          }
        ],
        "sender": {
          "identifier": {
            "system": "https://fhir.nhs.uk/Id/ods-organization-code",
            "value": "CAV"
          }
        },
        "source": {
          "endpoint": "https://fhir.nwgenomics.nhs.uk/Endpoint/ACMELab",
          "software": "NW GLH"
        }
      }
    },
    {
      "fullUrl": "urn:uuid:78270666-7af3-4500-a5f3-2b110915f397",
      "resource": {
        "resourceType": "Patient",
        "address": [
          {
            "city": "Baglan",
            "district": "Neath port talbot",
            "line": [
              "A B M U Health Board",
              "One Talbot Gateway"
            ],
            "postalCode": "SA12 7BR"
          }
        ],
        "birthDate": "1999-10-13",
        "gender": "male",
        "identifier": [
          {
            "assigner": {
              "identifier": {
                "system": "https://fhir.nhs.uk/Id/ods-organization-code",
                "value": "7A4"
              }
            },
            "type": {
              "coding": [
                {
                  "code": "PI",
                  "system": "http://terminology.hl7.org/CodeSystem/v2-0203"
                }
              ]
            },
            "value": "403281375"
          },
          {
            "assigner": {
              "identifier": {
                "system": "https://fhir.nhs.uk/Id/ods-organization-code",
                "value": "X24"
              }
            },
            "system": "https://fhir.nhs.uk/Id/nhs-number",
            "type": {
              "coding": [
                {
                  "code": "NH",
                  "system": "http://terminology.hl7.org/CodeSystem/v2-0203"
                }
              ]
            },
            "value": "9737383257"
          }
        ],
        "name": [
          {
            "family": "WREXHAM",
            "given": [
              "Myrcella"
            ],
            "prefix": [
              "Mr"
            ]
          }
        ]
      }
    },
    {
      "fullUrl": "urn:uuid:e6d48fd9-b5b6-4288-8c91-48c7a81f384d",
      "resource": {
        "resourceType": "Encounter",
        "class": {
          "code": "OBSENC",
          "system": "http://terminology.hl7.org/CodeSystem/v3-ActCode"
        },
        "status": "finished",
        "subject": {
          "identifier": {
            "assigner": {
              "identifier": {
                "system": "https://fhir.nhs.uk/Id/ods-organization-code",
                "value": "X24"
              }
            },
            "system": "https://fhir.nhs.uk/Id/nhs-number",
            "type": {
              "coding": [
                {
                  "code": "NH",
                  "system": "http://terminology.hl7.org/CodeSystem/v2-0203"
                }
              ]
            },
            "value": "9737383257"
          },
          "reference": "urn:uuid:78270666-7af3-4500-a5f3-2b110915f397"
        }
      }
    },
    {
      "fullUrl": "urn:uuid:01a43a29-a040-4428-bf91-5be76e516e3d",
      "resource": {
        "resourceType": "Observation",
        "code": {
          "text": "Report Line 1"
        },
        "effectiveDateTime": "2018-05-24T00:00:00+00:00",
        "identifier": [
          {
            "type": {
              "coding": [
                {
                  "code": "FILL",
                  "system": "http://terminology.hl7.org/CodeSystem/v2-0203"
                }
              ]
            },
            "value": "8005372251-1-M0007"
          }
        ],
        "performer": [
          {
            "identifier": {
              "system": "https://fhir.nhs.uk/Id/ods-organization-code",
              "value": "699X0"
            },
            "type": "Organization"
          }
        ],
        "status": "final",
        "subject": {
          "identifier": {
            "assigner": {
              "identifier": {
                "system": "https://fhir.nhs.uk/Id/ods-organization-code",
                "value": "X24"
              }
            },
            "system": "https://fhir.nhs.uk/Id/nhs-number",
            "type": {
              "coding": [
                {
                  "code": "NH",
                  "system": "http://terminology.hl7.org/CodeSystem/v2-0203"
                }
              ]
            },
            "value": "9737383257"
          },
          "reference": "urn:uuid:78270666-7af3-4500-a5f3-2b110915f397"
        },
        "valueString": "Specimen received: Mid Stream Urine/n/nAccession Number(s) U18S999001A/nWhite Blood Cell Count 10-99 x10/S/6/L/nRed Blood Cell Count >=100 x10/S/6/L/n/n>= 10/S/8 cfu/L Escherichia coli (ECOL)/n/nAntibiotic/Culture: ECOL/n------------------- ------/nNitrofurantoin S/nTrimethoprim S/nAmoxicillin R/n"
      }
    },
    {
      "fullUrl": "urn:uuid:e16c2b6a-21ad-4c61-96d4-ec8259e55614",
      "resource": {
        "resourceType": "Specimen",
        "collection": {
          "collectedDateTime": "2018-05-24T00:00:00+00:00"
        },
        "identifier": [
          {
            "type": {
              "coding": [
                {
                  "code": "FILL",
                  "system": "http://terminology.hl7.org/CodeSystem/v2-0203"
                }
              ]
            },
            "value": "8005372251"
          }
        ],
        "receivedTime": "2018-05-24T00:00:00+00:00",
        "status": "unavailable",
        "subject": {
          "identifier": {
            "assigner": {
              "identifier": {
                "system": "https://fhir.nhs.uk/Id/ods-organization-code",
                "value": "X24"
              }
            },
            "system": "https://fhir.nhs.uk/Id/nhs-number",
            "type": {
              "coding": [
                {
                  "code": "NH",
                  "system": "http://terminology.hl7.org/CodeSystem/v2-0203"
                }
              ]
            },
            "value": "9737383257"
          },
          "reference": "urn:uuid:78270666-7af3-4500-a5f3-2b110915f397"
        },
        "type": {
          "coding": [
            {
              "code": "MMSU",
              "display": "Mid Stream Urine",
              "system": "ACME"
            }
          ]
        }
      }
    },
    {
      "fullUrl": "urn:uuid:35b7ee41-4673-4626-ba3d-7f656b708bcf",
      "resource": {
        "resourceType": "ServiceRequest",
        "category": [
          {
            "coding": [
              {
                "code": "116148004",
                "system": "http://snomed.info/sct"
              }
            ]
          }
        ],
        "code": {
          "coding": [
            {
              "code": "M0007",
              "display": "Urine MC/T/S"
            }
          ]
        },
        "encounter": {
          "reference": "urn:uuid:e6d48fd9-b5b6-4288-8c91-48c7a81f384d"
        },
        "identifier": [
          {
            "type": {
              "coding": [
                {
                  "code": "FILL",
                  "system": "http://terminology.hl7.org/CodeSystem/v2-0203"
                }
              ]
            },
            "value": "8005372251-1-M0007"
          }
        ],
        "intent": "order",
        "specimen": [
          {
            "reference": "urn:uuid:e16c2b6a-21ad-4c61-96d4-ec8259e55614",
            "type": "Specimen"
          }
        ],
        "status": "completed",
        "subject": {
          "identifier": {
            "assigner": {
              "identifier": {
                "system": "https://fhir.nhs.uk/Id/ods-organization-code",
                "value": "X24"
              }
            },
            "system": "https://fhir.nhs.uk/Id/nhs-number",
            "type": {
              "coding": [
                {
                  "code": "NH",
                  "system": "http://terminology.hl7.org/CodeSystem/v2-0203"
                }
              ]
            },
            "value": "9737383257"
          },
          "reference": "urn:uuid:78270666-7af3-4500-a5f3-2b110915f397"
        }
      }
    },
    {
      "fullUrl": "urn:uuid:4375ffa9-e805-4e2d-91d4-60da4fea0f5d",
      "resource": {
        "resourceType": "DiagnosticReport",
        "basedOn": [
          {
            "identifier": {
              "type": {
                "coding": [
                  {
                    "code": "FILL",
                    "system": "http://terminology.hl7.org/CodeSystem/v2-0203"
                  }
                ]
              },
              "value": "8005372251-1-M0007"
            },
            "reference": "urn:uuid:35b7ee41-4673-4626-ba3d-7f656b708bcf",
            "type": "ServiceRequest"
          }
        ],
        "category": [
          {
            "coding": [
              {
                "code": "GE",
                "system": "http://terminology.hl7.org/CodeSystem/v2-0074"
              }
            ]
          }
        ],
        "code": {
          "coding": [
            {
              "code": "M0007",
              "display": "Urine MC/T/S"
            }
          ]
        },
        "effectiveDateTime": "2018-05-24T00:00:00+00:00",
        "encounter": {
          "reference": "urn:uuid:e6d48fd9-b5b6-4288-8c91-48c7a81f384d"
        },
        "identifier": [
          {
            "type": {
              "coding": [
                {
                  "code": "FILL",
                  "system": "http://terminology.hl7.org/CodeSystem/v2-0203"
                }
              ]
            },
            "value": "8005372251-1-M0007"
          }
        ],
        "issued": "2018-05-24T00:00:00+00:00",
        "performer": [
          {
            "display": "NHS North West Genomics",
            "identifier": {
              "system": "https://fhir.nhs.uk/Id/ods-organization-code",
              "value": "699X0"
            },
            "type": "Organization"
          }
        ],
        "result": [
          {
            "reference": "urn:uuid:01a43a29-a040-4428-bf91-5be76e516e3d",
            "type": "Observation"
          }
        ],
        "specimen": [
          {
            "reference": "urn:uuid:e16c2b6a-21ad-4c61-96d4-ec8259e55614",
            "type": "Specimen"
          }
        ],
        "status": "final",
        "subject": {
          "identifier": {
            "assigner": {
              "identifier": {
                "system": "https://fhir.nhs.uk/Id/ods-organization-code",
                "value": "X24"
              }
            },
            "system": "https://fhir.nhs.uk/Id/nhs-number",
            "type": {
              "coding": [
                {
                  "code": "NH",
                  "system": "http://terminology.hl7.org/CodeSystem/v2-0203"
                }
              ]
            },
            "value": "9737383257"
          },
          "reference": "urn:uuid:78270666-7af3-4500-a5f3-2b110915f397"
        }
      }
    }
  ],
  "identifier": {
    "value": "5051095-201905141025"
  },
  "timestamp": "2019-05-14T10:25:27+00:00",
  "type": "message"
}