{
  "resourceType": "Bundle",
  "entry": [
    {
      "fullUrl": "urn:uuid:6b6a5b98-0842-4a08-9cdb-ce02eb2eadb5",
      "resource": {
        "resourceType": "MessageHeader",
        "destination": [
          {
            "endpoint": "https//fhir.mft.nhs.uk/Endpoint/LIMS",
            "receiver": {
              "identifier": {
                "system": "https://fhir.nhs.uk/Id/ods-organization-code",
                "value": "699X0"
              }
            }
          }
        ],
        "eventCoding": {
          "code": "O21",
          "system": "http://terminology.hl7.org/CodeSystem/v2-0003"
        },
        "focus": [
          {
            "reference": "urn:uuid:e76f8869-25f6-4d83-89f7-51ad2cb8c4ca"
          }
        ],
        "sender": {
          "identifier": {
            "system": "https://fhir.nhs.uk/Id/ods-organization-code",
            "value": "REP"
          }
        },
        "source": {
          "endpoint": "https://fhir.nwgenomics.nhs.uk/Endpoint/",
          "software": "NW GLH"
        }
      }
    },
    {
      "fullUrl": "urn:uuid:da3414f2-1148-4ebb-9164-0ce72b7da700",
      "resource": {
        "resourceType": "Patient",
        "address": [
          {
            "city": "Liverpool",
            "line": [
              "15 Town Road"
            ],
            "postalCode": "L1 0AJ"
          }
        ],
        "birthDate": "1996-04-15",
        "gender": "female",
        "identifier": [
          {
            "assigner": {
              "identifier": {
                "system": "https://fhir.nhs.uk/Id/ods-organization-code",
                "value": "REP"
              }
            },
            "system": "https://liverpoolwomens.nhs.uk/Id/medical-record-number",
            "type": {
              "coding": [
                {
                  "code": "MR",
                  "system": "http://terminology.hl7.org/CodeSystem/v2-0203"
                }
              ]
            },
            "value": "W0007125"
          }
        ],
        "name": [
          {
            "family": "test",
            "given": [
              "biochemistry"
            ]
          }
        ]
      }
    },
    {
      "fullUrl": "urn:uuid:6a3f4c2e-7854-42d4-b679-32e38b576f1a",
      "resource": {
        "resourceType": "Encounter",
        "class": {
          "code": "OBSENC",
          "system": "http://terminology.hl7.org/CodeSystem/v3-ActCode"
        },
        "identifier": [
          {
            "assigner": {
              "identifier": {
                "system": "https://fhir.nhs.uk/Id/ods-organization-code",
                "value": "REP"
              }
            },
            "type": {
              "coding": [
                {
                  "code": "VN",
                  "system": "http://terminology.hl7.org/CodeSystem/v2-0203"
                }
              ]
            },
            "value": "L00000073528"
          }
        ],
        "status": "finished",
        "subject": {
          "reference": "urn:uuid:da3414f2-1148-4ebb-9164-0ce72b7da700"
        }
      }
    },
    {
      "fullUrl": "urn:uuid:16a12f0d-f36e-4959-9f69-7a122ce98d42",
      "resource": {
        "resourceType": "Observation",
        "code": {
          "coding": [
            {
              "code": "Referring-Clinician-Telephone:",
              "display": "01512277372"
            }
          ]
        },
        "performer": [
          {
            "identifier": {
              "system": "https://fhir.nhs.uk/Id/ods-organization-code",
              "value": "699X0"
            },
            "type": "Organization"
          }
        ],
        "status": "final",
        "subject": {
          "reference": "urn:uuid:da3414f2-1148-4ebb-9164-0ce72b7da700"
        }
      }
    },
    {
      "fullUrl": "urn:uuid:e891476f-5ddc-480d-86db-7d1f40662625",
      "resource": {
        "resourceType": "Observation",
        "code": {
          "coding": [
            {
              "code": "Age-at-collection:",
              "display": "123"
            }
          ]
        },
        "performer": [
          {
            "identifier": {
              "system": "https://fhir.nhs.uk/Id/ods-organization-code",
              "value": "699X0"
            },
            "type": "Organization"
          }
        ],
        "status": "final",
        "subject": {
          "reference": "urn:uuid:da3414f2-1148-4ebb-9164-0ce72b7da700"
        }
      }
    },
    {
      "fullUrl": "urn:uuid:ea57f53f-f651-42e9-9708-97dada2089f6",
      "resource": {
        "resourceType": "Observation",
        "code": {
          "coding": [
            {
              "code": "Has-consent-been-obtained-for-tests?",
              "display": "Y"
            }
          ]
        },
        "performer": [
          {
            "identifier": {
              "system": "https://fhir.nhs.uk/Id/ods-organization-code",
              "value": "699X0"
            },
            "type": "Organization"
          }
        ],
        "status": "final",
        "subject": {
          "reference": "urn:uuid:da3414f2-1148-4ebb-9164-0ce72b7da700"
        }
      }
    },
    {
      "fullUrl": "urn:uuid:37da3fbe-b28e-49e3-86f9-9277cf1942c1",
      "resource": {
        "resourceType": "Observation",
        "code": {
          "coding": [
            {
              "code": "Referring-Clinician-Email:",
              "display": "EMERSON.WONG@LWH.NHS.UK"
            }
          ]
        },
        "performer": [
          {
            "identifier": {
              "system": "https://fhir.nhs.uk/Id/ods-organization-code",
              "value": "699X0"
            },
            "type": "Organization"
          }
        ],
        "status": "final",
        "subject": {
          "reference": "urn:uuid:da3414f2-1148-4ebb-9164-0ce72b7da700"
        }
      }
    },
    {
      "fullUrl": "urn:uuid:2f8517e7-20fe-4be3-8918-d42c9b0ed873",
      "resource": {
        "resourceType": "Observation",
        "code": {
          "coding": [
            {
              "code": "Does-this-test-relate-to-an-ongoing-pregnancy?",
              "display": "N"
            }
          ]
        },
        "performer": [
          {
            "identifier": {
              "system": "https://fhir.nhs.uk/Id/ods-organization-code",
              "value": "699X0"
            },
            "type": "Organization"
          }
        ],
        "status": "final",
        "subject": {
          "reference": "urn:uuid:da3414f2-1148-4ebb-9164-0ce72b7da700"
        }
      }
    },
    {
      "fullUrl": "urn:uuid:51785be2-462b-4f0a-9eaf-f012d97e9f4b",
      "resource": {
        "resourceType": "Observation",
        "code": {
          "coding": [
            {
              "code": "Patient-gestation:",
              "display": "2"
            }
          ]
        },
        "performer": [
          {
            "identifier": {
              "system": "https://fhir.nhs.uk/Id/ods-organization-code",
              "value": "699X0"
            },
            "type": "Organization"
          }
        ],
        "status": "final",
        "subject": {
          "reference": "urn:uuid:da3414f2-1148-4ebb-9164-0ce72b7da700"
        }
      }
    },
    {
      "fullUrl": "urn:uuid:214e4701-b1ff-4110-8e4f-7c357c562f03",
      "resource": {
        "resourceType": "Observation",
        "code": {
          "coding": [
            {
              "code": "Referring-Clinician-Current-Speciality:",
              "display": "obs"
            }
          ]
        },
        "performer": [
          {
            "identifier": {
              "system": "https://fhir.nhs.uk/Id/ods-organization-code",
              "value": "699X0"
            },
            "type": "Organization"
          }
        ],
        "status": "final",
        "subject": {
          "reference": "urn:uuid:da3414f2-1148-4ebb-9164-0ce72b7da700"
        }
      }
    },
    {
      "fullUrl": "urn:uuid:aae5ac01-6923-42ff-a40a-69462891317e",
      "resource": {
        "resourceType": "Observation",
        "code": {
          "coding": [
            {
              "code": "Patient-is-from-consanguineous-union?",
              "display": "Unknown"
            }
          ]
        },
        "performer": [
          {
            "identifier": {
              "system": "https://fhir.nhs.uk/Id/ods-organization-code",
              "value": "699X0"
            },
            "type": "Organization"
          }
        ],
        "status": "final",
        "subject": {
          "reference": "urn:uuid:da3414f2-1148-4ebb-9164-0ce72b7da700"
        }
      }
    },
    {
      "fullUrl": "urn:uuid:0efe1b46-3706-4044-83be-176f69aae44c",
      "resource": {
        "resourceType": "Observation",
        "code": {
          "coding": [
            {
              "code": "Referring-Organisation-ODS-code:",
              "display": "Liverpool Women's Hospital"
            }
          ]
        },
        "performer": [
          {
            "identifier": {
              "system": "https://fhir.nhs.uk/Id/ods-organization-code",
              "value": "699X0"
            },
            "type": "Organization"
          }
        ],
        "status": "final",
        "subject": {
          "reference": "urn:uuid:da3414f2-1148-4ebb-9164-0ce72b7da700"
        }
      }
    },
    {
      "fullUrl": "urn:uuid:fbd7057c-bac9-4d27-a376-cdcde79f1f77",
      "resource": {
        "resourceType": "Observation",
        "code": {
          "coding": [
            {
              "code": "Secondary-Clinician-Email:",
              "display": "EMERSON.WONG@LWH.NHS.UK"
            }
          ]
        },
        "performer": [
          {
            "identifier": {
              "system": "https://fhir.nhs.uk/Id/ods-organization-code",
              "value": "699X0"
            },
            "type": "Organization"
          }
        ],
        "status": "final",
        "subject": {
          "reference": "urn:uuid:da3414f2-1148-4ebb-9164-0ce72b7da700"
        }
      }
    },
    {
      "fullUrl": "urn:uuid:eaea017b-a94e-4464-b780-320f6ac5c998",
      "resource": {
        "resourceType": "Observation",
        "code": {
          "coding": [
            {
              "code": "Does-this-test-relate-to-a-pregnancy-with->-1-fetus?",
              "display": "N"
            }
          ]
        },
        "performer": [
          {
            "identifier": {
              "system": "https://fhir.nhs.uk/Id/ods-organization-code",
              "value": "699X0"
            },
            "type": "Organization"
          }
        ],
        "status": "final",
        "subject": {
          "reference": "urn:uuid:da3414f2-1148-4ebb-9164-0ce72b7da700"
        }
      }
    },
    {
      "fullUrl": "urn:uuid:e313f5e2-c55d-4a92-b04d-fde128763f9e",
      "resource": {
        "resourceType": "Observation",
        "code": {
          "coding": [
            {
              "code": "Is-this-test-for-a-decreased-infant-or-pregnancy-loss?",
              "display": "Yes"
            }
          ]
        },
        "performer": [
          {
            "identifier": {
              "system": "https://fhir.nhs.uk/Id/ods-organization-code",
              "value": "699X0"
            },
            "type": "Organization"
          }
        ],
        "status": "final",
        "subject": {
          "reference": "urn:uuid:da3414f2-1148-4ebb-9164-0ce72b7da700"
        }
      }
    },
    {
      "fullUrl": "urn:uuid:6ba93606-55d1-4cb9-a6c8-b1b849e6f7ef",
      "resource": {
        "resourceType": "Observation",
        "code": {
          "coding": [
            {
              "code": "Patient-expected-delivery-date:",
              "display": "06/11/25"
            }
          ]
        },
        "performer": [
          {
            "identifier": {
              "system": "https://fhir.nhs.uk/Id/ods-organization-code",
              "value": "699X0"
            },
            "type": "Organization"
          }
        ],
        "status": "final",
        "subject": {
          "reference": "urn:uuid:da3414f2-1148-4ebb-9164-0ce72b7da700"
        }
      }
    },
    {
      "fullUrl": "urn:uuid:9e795c89-931c-4754-904a-541b4c29b7d7",
      "resource": {
        "resourceType": "Observation",
        "code": {
          "coding": [
            {
              "code": "Is-the-test-done-in-the-prenatal-or-neonatal-period?",
              "display": "Neonatal"
            }
          ]
        },
        "performer": [
          {
            "identifier": {
              "system": "https://fhir.nhs.uk/Id/ods-organization-code",
              "value": "699X0"
            },
            "type": "Organization"
          }
        ],
        "status": "final",
        "subject": {
          "reference": "urn:uuid:da3414f2-1148-4ebb-9164-0ce72b7da700"
        }
      }
    },
    {
      "fullUrl": "urn:uuid:0dfe41b0-3564-4c5d-991d-e20ebcf6a020",
      "resource": {
        "resourceType": "Observation",
        "code": {
          "coding": [
            {
              "code": "Referring-Clinician-Name:",
              "display": "emerson wong"
            }
          ]
        },
        "performer": [
          {
            "identifier": {
              "system": "https://fhir.nhs.uk/Id/ods-organization-code",
              "value": "699X0"
            },
            "type": "Organization"
          }
        ],
        "status": "final",
        "subject": {
          "reference": "urn:uuid:da3414f2-1148-4ebb-9164-0ce72b7da700"
        }
      }
    },
    {
      "fullUrl": "urn:uuid:2dc642dc-5701-4a02-9c32-a95134ac0b52",
      "resource": {
        "resourceType": "Observation",
        "code": {
          "text": "Unknown observation code"
        },
        "performer": [
          {
            "identifier": {
              "system": "https://fhir.nhs.uk/Id/ods-organization-code",
              "value": "699X0"
            },
            "type": "Organization"
          }
        ],
        "status": "final",
        "subject": {
          "reference": "urn:uuid:da3414f2-1148-4ebb-9164-0ce72b7da700"
        }
      }
    },
    {
      "fullUrl": "urn:uuid:9f51c58b-641f-4e9a-89a4-2ae151ecc6c5",
      "resource": {
        "resourceType": "Specimen",
        "status": "unavailable",
        "subject": {
          "reference": "urn:uuid:da3414f2-1148-4ebb-9164-0ce72b7da700"
        }
      }
    },
    {
      "fullUrl": "urn:uuid:e76f8869-25f6-4d83-89f7-51ad2cb8c4ca",
      "resource": {
        "resourceType": "ServiceRequest",
        "authoredOn": "2025-11-06T13:53:39+00:00",
        "category": [
          {
            "coding": [
              {
                "code": "116148004",
                "system": "http://snomed.info/sct"
              }
            ]
          }
        ],
        "code": {
          "coding": [
            {
              "code": "R250.1",
              "system": "https://fhir.nhs.uk/CodeSystem/England-GenomicTestDirectory"
            }
          ]
        },
        "encounter": {
          "identifier": {
            "assigner": {
              "identifier": {
                "system": "https://fhir.nhs.uk/Id/ods-organization-code",
                "value": "REP"
              }
            },
            "type": {
              "coding": [
                {
                  "code": "VN",
                  "system": "http://terminology.hl7.org/CodeSystem/v2-0203"
                }
              ]
            },
            "value": "L00000073528"
          },
          "reference": "urn:uuid:6a3f4c2e-7854-42d4-b679-32e38b576f1a"
        },
        "intent": "order",
        "specimen": [
          {
            "reference": "urn:uuid:9f51c58b-641f-4e9a-89a4-2ae151ecc6c5",
            "type": "Specimen"
          }
        ],
        "status": "active",
        "subject": {
          "reference": "urn:uuid:da3414f2-1148-4ebb-9164-0ce72b7da700"
        },
        "supportingInfo": [
          {
            "reference": "urn:uuid:16a12f0d-f36e-4959-9f69-7a122ce98d42",
            "type": "Observation"
          },
          {
            "reference": "urn:uuid:e891476f-5ddc-480d-86db-7d1f40662625",
            "type": "Observation"
          },
          {
            "reference": "urn:uuid:ea57f53f-f651-42e9-9708-97dada2089f6",
            "type": "Observation"
          },
          {
            "reference": "urn:uuid:37da3fbe-b28e-49e3-86f9-9277cf1942c1",
            "type": "Observation"
          },
          {
            "reference": "urn:uuid:2f8517e7-20fe-4be3-8918-d42c9b0ed873",
            "type": "Observation"
          },
          {
            "reference": "urn:uuid:51785be2-462b-4f0a-9eaf-f012d97e9f4b",
            "type": "Observation"
          },
          {
            "reference": "urn:uuid:214e4701-b1ff-4110-8e4f-7c357c562f03",
            "type": "Observation"
          },
          {
            "reference": "urn:uuid:aae5ac01-6923-42ff-a40a-69462891317e",
            "type": "Observation"
          },
          {
            "reference": "urn:uuid:0efe1b46-3706-4044-83be-176f69aae44c",
            "type": "Observation"
          },
          {
            "reference": "urn:uuid:fbd7057c-bac9-4d27-a376-cdcde79f1f77",
            "type": "Observation"
          },
          {
            "reference": "urn:uuid:eaea017b-a94e-4464-b780-320f6ac5c998",
            "type": "Observation"
          },
          {
            "reference": "urn:uuid:e313f5e2-c55d-4a92-b04d-fde128763f9e",
            "type": "Observation"
          },
          {
            "reference": "urn:uuid:6ba93606-55d1-4cb9-a6c8-b1b849e6f7ef",
            "type": "Observation"
          },
          {
            "reference": "urn:uuid:9e795c89-931c-4754-904a-541b4c29b7d7",
            "type": "Observation"
          },
          {
            "reference": "urn:uuid:0dfe41b0-3564-4c5d-991d-e20ebcf6a020",
            "type": "Observation"
          },
          {
            "reference": "urn:uuid:2dc642dc-5701-4a02-9c32-a95134ac0b52",
            "type": "Observation"
          }
        ]
      }
    }
  ],
  "identifier": {
    "value": "b4130d36-79d8-4b27-9813-418ab2e3a30d"
  },
  "timestamp": "2026-02-02T22:18:41+00:00",
  "type": "message"
}