{
  "resourceType": "Bundle",
  "entry": [
    {
      "fullUrl": "urn:uuid:268259a7-8692-40cf-8677-4547fbeee73f",
      "resource": {
        "resourceType": "MessageHeader",
        "destination": [
          {
            "endpoint": "https//fhir.mft.nhs.uk/Endpoint/LIMS",
            "receiver": {
              "identifier": {
                "system": "https://fhir.nhs.uk/Id/ods-organization-code",
                "value": "699X0"
              }
            }
          }
        ],
        "eventCoding": {
          "code": "O21",
          "system": "http://terminology.hl7.org/CodeSystem/v2-0003"
        },
        "focus": [
          {
            "reference": "urn:uuid:21d57069-5a04-43cc-a7b7-7137fe1b7f77"
          }
        ],
        "sender": {
          "identifier": {
            "system": "https://fhir.nhs.uk/Id/ods-organization-code",
            "value": "REP"
          }
        },
        "source": {
          "endpoint": "https://fhir.nwgenomics.nhs.uk/Endpoint/",
          "software": "NW GLH"
        }
      }
    },
    {
      "fullUrl": "urn:uuid:09d8d670-b971-411d-9e8b-50bd5ae65689",
      "resource": {
        "resourceType": "Patient",
        "address": [
          {
            "city": "Liverpool",
            "line": [
              "15 Town Road"
            ],
            "postalCode": "L1 0AJ"
          }
        ],
        "birthDate": "1996-04-15",
        "gender": "female",
        "identifier": [
          {
            "assigner": {
              "identifier": {
                "system": "https://fhir.nhs.uk/Id/ods-organization-code",
                "value": "REP"
              }
            },
            "system": "https://liverpoolwomens.nhs.uk/Id/medical-record-number",
            "type": {
              "coding": [
                {
                  "code": "MR",
                  "system": "http://terminology.hl7.org/CodeSystem/v2-0203"
                }
              ]
            },
            "value": "W0007125"
          }
        ],
        "name": [
          {
            "family": "test",
            "given": [
              "biochemistry"
            ]
          }
        ]
      }
    },
    {
      "fullUrl": "urn:uuid:a9e08a80-ba29-4c1e-bd57-eef96607edde",
      "resource": {
        "resourceType": "Encounter",
        "class": {
          "code": "OBSENC",
          "system": "http://terminology.hl7.org/CodeSystem/v3-ActCode"
        },
        "identifier": [
          {
            "assigner": {
              "identifier": {
                "system": "https://fhir.nhs.uk/Id/ods-organization-code",
                "value": "REP"
              }
            },
            "type": {
              "coding": [
                {
                  "code": "AN",
                  "system": "http://terminology.hl7.org/CodeSystem/v2-0203"
                }
              ]
            },
            "value": "L00000073528"
          }
        ],
        "status": "finished",
        "subject": {
          "reference": "urn:uuid:09d8d670-b971-411d-9e8b-50bd5ae65689"
        }
      }
    },
    {
      "fullUrl": "urn:uuid:85572f61-96df-48f7-9f46-2b706d5e4c56",
      "resource": {
        "resourceType": "Observation",
        "code": {
          "coding": [
            {
              "code": "Referring-Clinician-Telephone:",
              "display": "01512277372"
            }
          ]
        },
        "performer": [
          {
            "identifier": {
              "system": "https://fhir.nhs.uk/Id/ods-organization-code",
              "value": "699X0"
            },
            "type": "Organization"
          }
        ],
        "status": "final",
        "subject": {
          "reference": "urn:uuid:09d8d670-b971-411d-9e8b-50bd5ae65689"
        }
      }
    },
    {
      "fullUrl": "urn:uuid:0d77185f-ab5d-49d4-bb72-387162050202",
      "resource": {
        "resourceType": "Observation",
        "code": {
          "coding": [
            {
              "code": "Age-at-collection:",
              "display": "123"
            }
          ]
        },
        "performer": [
          {
            "identifier": {
              "system": "https://fhir.nhs.uk/Id/ods-organization-code",
              "value": "699X0"
            },
            "type": "Organization"
          }
        ],
        "status": "final",
        "subject": {
          "reference": "urn:uuid:09d8d670-b971-411d-9e8b-50bd5ae65689"
        }
      }
    },
    {
      "fullUrl": "urn:uuid:1ef06004-6e71-430c-9095-d18adae51203",
      "resource": {
        "resourceType": "Observation",
        "code": {
          "coding": [
            {
              "code": "Has-consent-been-obtained-for-tests?",
              "display": "Y"
            }
          ]
        },
        "performer": [
          {
            "identifier": {
              "system": "https://fhir.nhs.uk/Id/ods-organization-code",
              "value": "699X0"
            },
            "type": "Organization"
          }
        ],
        "status": "final",
        "subject": {
          "reference": "urn:uuid:09d8d670-b971-411d-9e8b-50bd5ae65689"
        }
      }
    },
    {
      "fullUrl": "urn:uuid:aca0bcde-76e3-4f06-beb5-61c8e17d9f46",
      "resource": {
        "resourceType": "Observation",
        "code": {
          "coding": [
            {
              "code": "Referring-Clinician-Email:",
              "display": "EMERSON.WONG@LWH.NHS.UK"
            }
          ]
        },
        "performer": [
          {
            "identifier": {
              "system": "https://fhir.nhs.uk/Id/ods-organization-code",
              "value": "699X0"
            },
            "type": "Organization"
          }
        ],
        "status": "final",
        "subject": {
          "reference": "urn:uuid:09d8d670-b971-411d-9e8b-50bd5ae65689"
        }
      }
    },
    {
      "fullUrl": "urn:uuid:783c8fe1-e66c-4746-925c-b8f0d55416f4",
      "resource": {
        "resourceType": "Observation",
        "code": {
          "coding": [
            {
              "code": "Does-this-test-relate-to-an-ongoing-pregnancy?",
              "display": "N"
            }
          ]
        },
        "performer": [
          {
            "identifier": {
              "system": "https://fhir.nhs.uk/Id/ods-organization-code",
              "value": "699X0"
            },
            "type": "Organization"
          }
        ],
        "status": "final",
        "subject": {
          "reference": "urn:uuid:09d8d670-b971-411d-9e8b-50bd5ae65689"
        }
      }
    },
    {
      "fullUrl": "urn:uuid:aba5ed77-cf14-4ed9-9fcb-1c972e07df05",
      "resource": {
        "resourceType": "Observation",
        "code": {
          "coding": [
            {
              "code": "Patient-gestation:",
              "display": "2"
            }
          ]
        },
        "performer": [
          {
            "identifier": {
              "system": "https://fhir.nhs.uk/Id/ods-organization-code",
              "value": "699X0"
            },
            "type": "Organization"
          }
        ],
        "status": "final",
        "subject": {
          "reference": "urn:uuid:09d8d670-b971-411d-9e8b-50bd5ae65689"
        }
      }
    },
    {
      "fullUrl": "urn:uuid:63a33829-8ffd-44c2-9de2-bf21105590c9",
      "resource": {
        "resourceType": "Observation",
        "code": {
          "coding": [
            {
              "code": "Referring-Clinician-Current-Speciality:",
              "display": "obs"
            }
          ]
        },
        "performer": [
          {
            "identifier": {
              "system": "https://fhir.nhs.uk/Id/ods-organization-code",
              "value": "699X0"
            },
            "type": "Organization"
          }
        ],
        "status": "final",
        "subject": {
          "reference": "urn:uuid:09d8d670-b971-411d-9e8b-50bd5ae65689"
        }
      }
    },
    {
      "fullUrl": "urn:uuid:f74c3543-6274-49c4-8f9a-fe6442fbe47f",
      "resource": {
        "resourceType": "Observation",
        "code": {
          "coding": [
            {
              "code": "Patient-is-from-consanguineous-union?",
              "display": "Unknown"
            }
          ]
        },
        "performer": [
          {
            "identifier": {
              "system": "https://fhir.nhs.uk/Id/ods-organization-code",
              "value": "699X0"
            },
            "type": "Organization"
          }
        ],
        "status": "final",
        "subject": {
          "reference": "urn:uuid:09d8d670-b971-411d-9e8b-50bd5ae65689"
        }
      }
    },
    {
      "fullUrl": "urn:uuid:78480e92-3540-49e1-878b-ceed65d5eac2",
      "resource": {
        "resourceType": "Observation",
        "code": {
          "coding": [
            {
              "code": "Referring-Organisation-ODS-code:",
              "display": "Liverpool Women's Hospital"
            }
          ]
        },
        "performer": [
          {
            "identifier": {
              "system": "https://fhir.nhs.uk/Id/ods-organization-code",
              "value": "699X0"
            },
            "type": "Organization"
          }
        ],
        "status": "final",
        "subject": {
          "reference": "urn:uuid:09d8d670-b971-411d-9e8b-50bd5ae65689"
        }
      }
    },
    {
      "fullUrl": "urn:uuid:d35d45b9-95da-44b6-a984-06016f5b1df5",
      "resource": {
        "resourceType": "Observation",
        "code": {
          "coding": [
            {
              "code": "Secondary-Clinician-Email:",
              "display": "EMERSON.WONG@LWH.NHS.UK"
            }
          ]
        },
        "performer": [
          {
            "identifier": {
              "system": "https://fhir.nhs.uk/Id/ods-organization-code",
              "value": "699X0"
            },
            "type": "Organization"
          }
        ],
        "status": "final",
        "subject": {
          "reference": "urn:uuid:09d8d670-b971-411d-9e8b-50bd5ae65689"
        }
      }
    },
    {
      "fullUrl": "urn:uuid:2480d008-3173-473b-9ae6-5cb17a427315",
      "resource": {
        "resourceType": "Observation",
        "code": {
          "coding": [
            {
              "code": "Does-this-test-relate-to-a-pregnancy-with->-1-fetus?",
              "display": "N"
            }
          ]
        },
        "performer": [
          {
            "identifier": {
              "system": "https://fhir.nhs.uk/Id/ods-organization-code",
              "value": "699X0"
            },
            "type": "Organization"
          }
        ],
        "status": "final",
        "subject": {
          "reference": "urn:uuid:09d8d670-b971-411d-9e8b-50bd5ae65689"
        }
      }
    },
    {
      "fullUrl": "urn:uuid:45ca7bf0-23f0-4ecf-8a9c-0e62981fbb9a",
      "resource": {
        "resourceType": "Observation",
        "code": {
          "coding": [
            {
              "code": "Is-this-test-for-a-decreased-infant-or-pregnancy-loss?",
              "display": "Yes"
            }
          ]
        },
        "performer": [
          {
            "identifier": {
              "system": "https://fhir.nhs.uk/Id/ods-organization-code",
              "value": "699X0"
            },
            "type": "Organization"
          }
        ],
        "status": "final",
        "subject": {
          "reference": "urn:uuid:09d8d670-b971-411d-9e8b-50bd5ae65689"
        }
      }
    },
    {
      "fullUrl": "urn:uuid:20ec54d7-d8b0-4b83-9d8c-4c3a853e3f35",
      "resource": {
        "resourceType": "Observation",
        "code": {
          "coding": [
            {
              "code": "Patient-expected-delivery-date:",
              "display": "06/11/25"
            }
          ]
        },
        "performer": [
          {
            "identifier": {
              "system": "https://fhir.nhs.uk/Id/ods-organization-code",
              "value": "699X0"
            },
            "type": "Organization"
          }
        ],
        "status": "final",
        "subject": {
          "reference": "urn:uuid:09d8d670-b971-411d-9e8b-50bd5ae65689"
        }
      }
    },
    {
      "fullUrl": "urn:uuid:be24871b-e9ea-43f9-96cc-d2919402acb8",
      "resource": {
        "resourceType": "Observation",
        "code": {
          "coding": [
            {
              "code": "Is-the-test-done-in-the-prenatal-or-neonatal-period?",
              "display": "Neonatal"
            }
          ]
        },
        "performer": [
          {
            "identifier": {
              "system": "https://fhir.nhs.uk/Id/ods-organization-code",
              "value": "699X0"
            },
            "type": "Organization"
          }
        ],
        "status": "final",
        "subject": {
          "reference": "urn:uuid:09d8d670-b971-411d-9e8b-50bd5ae65689"
        }
      }
    },
    {
      "fullUrl": "urn:uuid:6191d628-98ec-42d5-904e-3daf5b5a7b9a",
      "resource": {
        "resourceType": "Observation",
        "code": {
          "coding": [
            {
              "code": "Referring-Clinician-Name:",
              "display": "emerson wong"
            }
          ]
        },
        "performer": [
          {
            "identifier": {
              "system": "https://fhir.nhs.uk/Id/ods-organization-code",
              "value": "699X0"
            },
            "type": "Organization"
          }
        ],
        "status": "final",
        "subject": {
          "reference": "urn:uuid:09d8d670-b971-411d-9e8b-50bd5ae65689"
        }
      }
    },
    {
      "fullUrl": "urn:uuid:73835671-9862-4d36-abc4-5d18471274af",
      "resource": {
        "resourceType": "Observation",
        "code": {
          "text": "Unknown observation code"
        },
        "performer": [
          {
            "identifier": {
              "system": "https://fhir.nhs.uk/Id/ods-organization-code",
              "value": "699X0"
            },
            "type": "Organization"
          }
        ],
        "status": "final",
        "subject": {
          "reference": "urn:uuid:09d8d670-b971-411d-9e8b-50bd5ae65689"
        }
      }
    },
    {
      "fullUrl": "urn:uuid:765ccb1c-5894-4b19-8b25-4c331b71b8d1",
      "resource": {
        "resourceType": "Specimen",
        "status": "unavailable",
        "subject": {
          "reference": "urn:uuid:09d8d670-b971-411d-9e8b-50bd5ae65689"
        }
      }
    },
    {
      "fullUrl": "urn:uuid:21d57069-5a04-43cc-a7b7-7137fe1b7f77",
      "resource": {
        "resourceType": "ServiceRequest",
        "authoredOn": "2025-11-06T13:53:39+00:00",
        "category": [
          {
            "coding": [
              {
                "code": "116148004",
                "system": "http://snomed.info/sct"
              }
            ]
          }
        ],
        "code": {
          "coding": [
            {
              "code": "R250.1",
              "system": "https://fhir.nhs.uk/CodeSystem/England-GenomicTestDirectory"
            }
          ]
        },
        "encounter": {
          "identifier": {
            "assigner": {
              "identifier": {
                "system": "https://fhir.nhs.uk/Id/ods-organization-code",
                "value": "REP"
              }
            },
            "type": {
              "coding": [
                {
                  "code": "AN",
                  "system": "http://terminology.hl7.org/CodeSystem/v2-0203"
                }
              ]
            },
            "value": "L00000073528"
          },
          "reference": "urn:uuid:a9e08a80-ba29-4c1e-bd57-eef96607edde"
        },
        "intent": "order",
        "specimen": [
          {
            "reference": "urn:uuid:765ccb1c-5894-4b19-8b25-4c331b71b8d1",
            "type": "Specimen"
          }
        ],
        "status": "active",
        "subject": {
          "reference": "urn:uuid:09d8d670-b971-411d-9e8b-50bd5ae65689"
        },
        "supportingInfo": [
          {
            "reference": "urn:uuid:85572f61-96df-48f7-9f46-2b706d5e4c56",
            "type": "Observation"
          },
          {
            "reference": "urn:uuid:0d77185f-ab5d-49d4-bb72-387162050202",
            "type": "Observation"
          },
          {
            "reference": "urn:uuid:1ef06004-6e71-430c-9095-d18adae51203",
            "type": "Observation"
          },
          {
            "reference": "urn:uuid:aca0bcde-76e3-4f06-beb5-61c8e17d9f46",
            "type": "Observation"
          },
          {
            "reference": "urn:uuid:783c8fe1-e66c-4746-925c-b8f0d55416f4",
            "type": "Observation"
          },
          {
            "reference": "urn:uuid:aba5ed77-cf14-4ed9-9fcb-1c972e07df05",
            "type": "Observation"
          },
          {
            "reference": "urn:uuid:63a33829-8ffd-44c2-9de2-bf21105590c9",
            "type": "Observation"
          },
          {
            "reference": "urn:uuid:f74c3543-6274-49c4-8f9a-fe6442fbe47f",
            "type": "Observation"
          },
          {
            "reference": "urn:uuid:78480e92-3540-49e1-878b-ceed65d5eac2",
            "type": "Observation"
          },
          {
            "reference": "urn:uuid:d35d45b9-95da-44b6-a984-06016f5b1df5",
            "type": "Observation"
          },
          {
            "reference": "urn:uuid:2480d008-3173-473b-9ae6-5cb17a427315",
            "type": "Observation"
          },
          {
            "reference": "urn:uuid:45ca7bf0-23f0-4ecf-8a9c-0e62981fbb9a",
            "type": "Observation"
          },
          {
            "reference": "urn:uuid:20ec54d7-d8b0-4b83-9d8c-4c3a853e3f35",
            "type": "Observation"
          },
          {
            "reference": "urn:uuid:be24871b-e9ea-43f9-96cc-d2919402acb8",
            "type": "Observation"
          },
          {
            "reference": "urn:uuid:6191d628-98ec-42d5-904e-3daf5b5a7b9a",
            "type": "Observation"
          },
          {
            "reference": "urn:uuid:73835671-9862-4d36-abc4-5d18471274af",
            "type": "Observation"
          }
        ]
      }
    }
  ],
  "identifier": {
    "value": "b4130d36-79d8-4b27-9813-418ab2e3a30d"
  },
  "timestamp": "2026-02-02T22:18:41+00:00",
  "type": "message"
}