{
  "resourceType": "Bundle",
  "entry": [
    {
      "fullUrl": "urn:uuid:3cbb3a1b-bbfc-4e1f-8775-c9f5738df3b5",
      "resource": {
        "resourceType": "MessageHeader",
        "destination": [
          {
            "endpoint": "https//fhir.mft.nhs.uk/Endpoint/LIMS",
            "receiver": {
              "identifier": {
                "system": "https://fhir.nhs.uk/Id/ods-organization-code",
                "value": "699X0"
              }
            }
          }
        ],
        "eventCoding": {
          "code": "O21",
          "system": "http://terminology.hl7.org/CodeSystem/v2-0003"
        },
        "focus": [
          {
            "reference": "urn:uuid:8231596a-b0ee-489b-9f17-6e5e1c01945b"
          }
        ],
        "sender": {
          "identifier": {
            "system": "https://fhir.nhs.uk/Id/ods-organization-code",
            "value": "REP"
          }
        },
        "source": {
          "endpoint": "https://fhir.nwgenomics.nhs.uk/Endpoint/",
          "software": "NW GLH"
        }
      }
    },
    {
      "fullUrl": "urn:uuid:6081475c-a0d9-4271-896f-8c1bd072f3f5",
      "resource": {
        "resourceType": "Patient",
        "address": [
          {
            "city": "Liverpool",
            "line": [
              "15 Town Road"
            ],
            "postalCode": "L1 0AJ"
          }
        ],
        "birthDate": "1996-04-15",
        "gender": "female",
        "identifier": [
          {
            "assigner": {
              "identifier": {
                "system": "https://fhir.nhs.uk/Id/ods-organization-code",
                "value": "REP"
              }
            },
            "system": "https://liverpoolwomens.nhs.uk/Id/medical-record-number",
            "type": {
              "coding": [
                {
                  "code": "MR",
                  "system": "http://terminology.hl7.org/CodeSystem/v2-0203"
                }
              ]
            },
            "value": "W0007125"
          }
        ],
        "name": [
          {
            "family": "test",
            "given": [
              "biochemistry"
            ]
          }
        ]
      }
    },
    {
      "fullUrl": "urn:uuid:a97e69ed-a210-4e9f-a0ec-fc9f6bec9a3d",
      "resource": {
        "resourceType": "Encounter",
        "class": {
          "code": "OBSENC",
          "system": "http://terminology.hl7.org/CodeSystem/v3-ActCode"
        },
        "identifier": [
          {
            "assigner": {
              "identifier": {
                "system": "https://fhir.nhs.uk/Id/ods-organization-code",
                "value": "REP"
              }
            },
            "type": {
              "coding": [
                {
                  "code": "AN",
                  "system": "http://terminology.hl7.org/CodeSystem/v2-0203"
                }
              ]
            },
            "value": "L00000073528"
          }
        ],
        "status": "finished",
        "subject": {
          "reference": "urn:uuid:6081475c-a0d9-4271-896f-8c1bd072f3f5"
        }
      }
    },
    {
      "fullUrl": "urn:uuid:11ba942c-095e-41d8-8965-9959d4d436af",
      "resource": {
        "resourceType": "Observation",
        "code": {
          "coding": [
            {
              "code": "Referring-Clinician-Telephone:",
              "display": "01512277372"
            }
          ]
        },
        "performer": [
          {
            "identifier": {
              "system": "https://fhir.nhs.uk/Id/ods-organization-code",
              "value": "699X0"
            },
            "type": "Organization"
          }
        ],
        "status": "final",
        "subject": {
          "reference": "urn:uuid:6081475c-a0d9-4271-896f-8c1bd072f3f5"
        }
      }
    },
    {
      "fullUrl": "urn:uuid:7053802a-7134-4694-8170-01eee09069cc",
      "resource": {
        "resourceType": "Observation",
        "code": {
          "coding": [
            {
              "code": "Age-at-collection:",
              "display": "123"
            }
          ]
        },
        "performer": [
          {
            "identifier": {
              "system": "https://fhir.nhs.uk/Id/ods-organization-code",
              "value": "699X0"
            },
            "type": "Organization"
          }
        ],
        "status": "final",
        "subject": {
          "reference": "urn:uuid:6081475c-a0d9-4271-896f-8c1bd072f3f5"
        }
      }
    },
    {
      "fullUrl": "urn:uuid:e4eb99d2-5dfc-473c-9e96-81029389f24b",
      "resource": {
        "resourceType": "Observation",
        "code": {
          "coding": [
            {
              "code": "Has-consent-been-obtained-for-tests?",
              "display": "Y"
            }
          ]
        },
        "performer": [
          {
            "identifier": {
              "system": "https://fhir.nhs.uk/Id/ods-organization-code",
              "value": "699X0"
            },
            "type": "Organization"
          }
        ],
        "status": "final",
        "subject": {
          "reference": "urn:uuid:6081475c-a0d9-4271-896f-8c1bd072f3f5"
        }
      }
    },
    {
      "fullUrl": "urn:uuid:c8d9424d-17af-4561-b1c7-12ddb25f3d65",
      "resource": {
        "resourceType": "Observation",
        "code": {
          "coding": [
            {
              "code": "Referring-Clinician-Email:",
              "display": "EMERSON.WONG@LWH.NHS.UK"
            }
          ]
        },
        "performer": [
          {
            "identifier": {
              "system": "https://fhir.nhs.uk/Id/ods-organization-code",
              "value": "699X0"
            },
            "type": "Organization"
          }
        ],
        "status": "final",
        "subject": {
          "reference": "urn:uuid:6081475c-a0d9-4271-896f-8c1bd072f3f5"
        }
      }
    },
    {
      "fullUrl": "urn:uuid:9324d1fb-b449-4e69-a7f7-e115b6a1404e",
      "resource": {
        "resourceType": "Observation",
        "code": {
          "coding": [
            {
              "code": "Does-this-test-relate-to-an-ongoing-pregnancy?",
              "display": "N"
            }
          ]
        },
        "performer": [
          {
            "identifier": {
              "system": "https://fhir.nhs.uk/Id/ods-organization-code",
              "value": "699X0"
            },
            "type": "Organization"
          }
        ],
        "status": "final",
        "subject": {
          "reference": "urn:uuid:6081475c-a0d9-4271-896f-8c1bd072f3f5"
        }
      }
    },
    {
      "fullUrl": "urn:uuid:12847bcf-ffb3-4326-9a20-864de8e47fac",
      "resource": {
        "resourceType": "Observation",
        "code": {
          "coding": [
            {
              "code": "Patient-gestation:",
              "display": "2"
            }
          ]
        },
        "performer": [
          {
            "identifier": {
              "system": "https://fhir.nhs.uk/Id/ods-organization-code",
              "value": "699X0"
            },
            "type": "Organization"
          }
        ],
        "status": "final",
        "subject": {
          "reference": "urn:uuid:6081475c-a0d9-4271-896f-8c1bd072f3f5"
        }
      }
    },
    {
      "fullUrl": "urn:uuid:a6c29b45-3d48-4596-8db0-329d3339db71",
      "resource": {
        "resourceType": "Observation",
        "code": {
          "coding": [
            {
              "code": "Referring-Clinician-Current-Speciality:",
              "display": "obs"
            }
          ]
        },
        "performer": [
          {
            "identifier": {
              "system": "https://fhir.nhs.uk/Id/ods-organization-code",
              "value": "699X0"
            },
            "type": "Organization"
          }
        ],
        "status": "final",
        "subject": {
          "reference": "urn:uuid:6081475c-a0d9-4271-896f-8c1bd072f3f5"
        }
      }
    },
    {
      "fullUrl": "urn:uuid:8c5e4cb7-8349-4e6a-98df-1e15d1c95b1c",
      "resource": {
        "resourceType": "Observation",
        "code": {
          "coding": [
            {
              "code": "Patient-is-from-consanguineous-union?",
              "display": "Unknown"
            }
          ]
        },
        "performer": [
          {
            "identifier": {
              "system": "https://fhir.nhs.uk/Id/ods-organization-code",
              "value": "699X0"
            },
            "type": "Organization"
          }
        ],
        "status": "final",
        "subject": {
          "reference": "urn:uuid:6081475c-a0d9-4271-896f-8c1bd072f3f5"
        }
      }
    },
    {
      "fullUrl": "urn:uuid:17319b90-dde5-4b7d-9277-8e8b4888a21e",
      "resource": {
        "resourceType": "Observation",
        "code": {
          "coding": [
            {
              "code": "Referring-Organisation-ODS-code:",
              "display": "Liverpool Women's Hospital"
            }
          ]
        },
        "performer": [
          {
            "identifier": {
              "system": "https://fhir.nhs.uk/Id/ods-organization-code",
              "value": "699X0"
            },
            "type": "Organization"
          }
        ],
        "status": "final",
        "subject": {
          "reference": "urn:uuid:6081475c-a0d9-4271-896f-8c1bd072f3f5"
        }
      }
    },
    {
      "fullUrl": "urn:uuid:2e4169b4-ec4e-4e67-8bc8-7a9f55837f67",
      "resource": {
        "resourceType": "Observation",
        "code": {
          "coding": [
            {
              "code": "Secondary-Clinician-Email:",
              "display": "EMERSON.WONG@LWH.NHS.UK"
            }
          ]
        },
        "performer": [
          {
            "identifier": {
              "system": "https://fhir.nhs.uk/Id/ods-organization-code",
              "value": "699X0"
            },
            "type": "Organization"
          }
        ],
        "status": "final",
        "subject": {
          "reference": "urn:uuid:6081475c-a0d9-4271-896f-8c1bd072f3f5"
        }
      }
    },
    {
      "fullUrl": "urn:uuid:44486208-f6a8-4535-b626-dfb7f2429d85",
      "resource": {
        "resourceType": "Observation",
        "code": {
          "coding": [
            {
              "code": "Does-this-test-relate-to-a-pregnancy-with->-1-fetus?",
              "display": "N"
            }
          ]
        },
        "performer": [
          {
            "identifier": {
              "system": "https://fhir.nhs.uk/Id/ods-organization-code",
              "value": "699X0"
            },
            "type": "Organization"
          }
        ],
        "status": "final",
        "subject": {
          "reference": "urn:uuid:6081475c-a0d9-4271-896f-8c1bd072f3f5"
        }
      }
    },
    {
      "fullUrl": "urn:uuid:fe3fecff-495a-43f8-b797-af2f23b1f355",
      "resource": {
        "resourceType": "Observation",
        "code": {
          "coding": [
            {
              "code": "Is-this-test-for-a-decreased-infant-or-pregnancy-loss?",
              "display": "Yes"
            }
          ]
        },
        "performer": [
          {
            "identifier": {
              "system": "https://fhir.nhs.uk/Id/ods-organization-code",
              "value": "699X0"
            },
            "type": "Organization"
          }
        ],
        "status": "final",
        "subject": {
          "reference": "urn:uuid:6081475c-a0d9-4271-896f-8c1bd072f3f5"
        }
      }
    },
    {
      "fullUrl": "urn:uuid:640461ef-20cc-47d3-8f1a-fcac0cd420ef",
      "resource": {
        "resourceType": "Observation",
        "code": {
          "coding": [
            {
              "code": "Patient-expected-delivery-date:",
              "display": "06/11/25"
            }
          ]
        },
        "performer": [
          {
            "identifier": {
              "system": "https://fhir.nhs.uk/Id/ods-organization-code",
              "value": "699X0"
            },
            "type": "Organization"
          }
        ],
        "status": "final",
        "subject": {
          "reference": "urn:uuid:6081475c-a0d9-4271-896f-8c1bd072f3f5"
        }
      }
    },
    {
      "fullUrl": "urn:uuid:f557ad51-061f-483e-ae84-dfc61341f880",
      "resource": {
        "resourceType": "Observation",
        "code": {
          "coding": [
            {
              "code": "Is-the-test-done-in-the-prenatal-or-neonatal-period?",
              "display": "Neonatal"
            }
          ]
        },
        "performer": [
          {
            "identifier": {
              "system": "https://fhir.nhs.uk/Id/ods-organization-code",
              "value": "699X0"
            },
            "type": "Organization"
          }
        ],
        "status": "final",
        "subject": {
          "reference": "urn:uuid:6081475c-a0d9-4271-896f-8c1bd072f3f5"
        }
      }
    },
    {
      "fullUrl": "urn:uuid:658bfb2a-7a6f-4827-8954-876c1216ea2a",
      "resource": {
        "resourceType": "Observation",
        "code": {
          "coding": [
            {
              "code": "Referring-Clinician-Name:",
              "display": "emerson wong"
            }
          ]
        },
        "performer": [
          {
            "identifier": {
              "system": "https://fhir.nhs.uk/Id/ods-organization-code",
              "value": "699X0"
            },
            "type": "Organization"
          }
        ],
        "status": "final",
        "subject": {
          "reference": "urn:uuid:6081475c-a0d9-4271-896f-8c1bd072f3f5"
        }
      }
    },
    {
      "fullUrl": "urn:uuid:812b9b11-b960-4622-b3ab-bc68765e18f6",
      "resource": {
        "resourceType": "Observation",
        "code": {
          "text": "Unknown observation code"
        },
        "performer": [
          {
            "identifier": {
              "system": "https://fhir.nhs.uk/Id/ods-organization-code",
              "value": "699X0"
            },
            "type": "Organization"
          }
        ],
        "status": "final",
        "subject": {
          "reference": "urn:uuid:6081475c-a0d9-4271-896f-8c1bd072f3f5"
        }
      }
    },
    {
      "fullUrl": "urn:uuid:8e7022f9-e3f1-4652-89e0-acd32f328502",
      "resource": {
        "resourceType": "Specimen",
        "status": "unavailable",
        "subject": {
          "reference": "urn:uuid:6081475c-a0d9-4271-896f-8c1bd072f3f5"
        }
      }
    },
    {
      "fullUrl": "urn:uuid:8231596a-b0ee-489b-9f17-6e5e1c01945b",
      "resource": {
        "resourceType": "ServiceRequest",
        "authoredOn": "2025-11-06T13:53:39+00:00",
        "category": [
          {
            "coding": [
              {
                "code": "116148004",
                "system": "http://snomed.info/sct"
              }
            ]
          }
        ],
        "code": {
          "coding": [
            {
              "code": "R250.1",
              "system": "https://fhir.nhs.uk/CodeSystem/England-GenomicTestDirectory"
            }
          ]
        },
        "encounter": {
          "identifier": {
            "assigner": {
              "identifier": {
                "system": "https://fhir.nhs.uk/Id/ods-organization-code",
                "value": "REP"
              }
            },
            "type": {
              "coding": [
                {
                  "code": "AN",
                  "system": "http://terminology.hl7.org/CodeSystem/v2-0203"
                }
              ]
            },
            "value": "L00000073528"
          },
          "reference": "urn:uuid:a97e69ed-a210-4e9f-a0ec-fc9f6bec9a3d"
        },
        "intent": "order",
        "specimen": [
          {
            "reference": "urn:uuid:8e7022f9-e3f1-4652-89e0-acd32f328502",
            "type": "Specimen"
          }
        ],
        "status": "active",
        "subject": {
          "reference": "urn:uuid:6081475c-a0d9-4271-896f-8c1bd072f3f5"
        },
        "supportingInfo": [
          {
            "reference": "urn:uuid:11ba942c-095e-41d8-8965-9959d4d436af",
            "type": "Observation"
          },
          {
            "reference": "urn:uuid:7053802a-7134-4694-8170-01eee09069cc",
            "type": "Observation"
          },
          {
            "reference": "urn:uuid:e4eb99d2-5dfc-473c-9e96-81029389f24b",
            "type": "Observation"
          },
          {
            "reference": "urn:uuid:c8d9424d-17af-4561-b1c7-12ddb25f3d65",
            "type": "Observation"
          },
          {
            "reference": "urn:uuid:9324d1fb-b449-4e69-a7f7-e115b6a1404e",
            "type": "Observation"
          },
          {
            "reference": "urn:uuid:12847bcf-ffb3-4326-9a20-864de8e47fac",
            "type": "Observation"
          },
          {
            "reference": "urn:uuid:a6c29b45-3d48-4596-8db0-329d3339db71",
            "type": "Observation"
          },
          {
            "reference": "urn:uuid:8c5e4cb7-8349-4e6a-98df-1e15d1c95b1c",
            "type": "Observation"
          },
          {
            "reference": "urn:uuid:17319b90-dde5-4b7d-9277-8e8b4888a21e",
            "type": "Observation"
          },
          {
            "reference": "urn:uuid:2e4169b4-ec4e-4e67-8bc8-7a9f55837f67",
            "type": "Observation"
          },
          {
            "reference": "urn:uuid:44486208-f6a8-4535-b626-dfb7f2429d85",
            "type": "Observation"
          },
          {
            "reference": "urn:uuid:fe3fecff-495a-43f8-b797-af2f23b1f355",
            "type": "Observation"
          },
          {
            "reference": "urn:uuid:640461ef-20cc-47d3-8f1a-fcac0cd420ef",
            "type": "Observation"
          },
          {
            "reference": "urn:uuid:f557ad51-061f-483e-ae84-dfc61341f880",
            "type": "Observation"
          },
          {
            "reference": "urn:uuid:658bfb2a-7a6f-4827-8954-876c1216ea2a",
            "type": "Observation"
          },
          {
            "reference": "urn:uuid:812b9b11-b960-4622-b3ab-bc68765e18f6",
            "type": "Observation"
          }
        ]
      }
    }
  ],
  "identifier": {
    "value": "b4130d36-79d8-4b27-9813-418ab2e3a30d"
  },
  "timestamp": "2026-02-02T22:18:41+00:00",
  "type": "message"
}