{
  "resourceType": "Bundle",
  "entry": [
    {
      "fullUrl": "urn:uuid:a6489e68-2be6-4efa-b30d-8f74d1a7d58f",
      "resource": {
        "resourceType": "MessageHeader",
        "destination": [
          {
            "endpoint": "https//fhir.mft.nhs.uk/Endpoint/LIMS",
            "receiver": {
              "identifier": {
                "system": "https://fhir.nhs.uk/Id/ods-organization-code",
                "value": "699X0"
              }
            }
          }
        ],
        "eventCoding": {
          "code": "O21",
          "system": "http://terminology.hl7.org/CodeSystem/v2-0003"
        },
        "focus": [
          {
            "reference": "urn:uuid:591822c1-21bd-4013-bfae-eda94cadede1"
          }
        ],
        "sender": {
          "identifier": {
            "system": "https://fhir.nhs.uk/Id/ods-organization-code",
            "value": "R0A"
          }
        },
        "source": {
          "endpoint": "https://fhir.nwgenomics.nhs.uk/Endpoint/HIVE",
          "software": "NW GLH"
        }
      }
    },
    {
      "fullUrl": "urn:uuid:be4d9608-6b56-47b3-bfa1-78fff46fa869",
      "resource": {
        "resourceType": "Patient",
        "address": [
          {
            "postalCode": "M13 9PL"
          }
        ],
        "birthDate": "1972-09-21",
        "gender": "female",
        "identifier": [
          {
            "system": "https://fhir.nhs.uk/Id/nhs-number",
            "type": {
              "coding": [
                {
                  "code": "NH",
                  "system": "http://terminology.hl7.org/CodeSystem/v2-0203"
                }
              ]
            },
            "value": "9737383192"
          },
          {
            "assigner": {
              "identifier": {
                "system": "https://fhir.nhs.uk/Id/ods-organization-code",
                "value": "R0A"
              }
            },
            "system": "urn:oid:1.2.840.114350.1.13.611.3.7.5.737384.14",
            "type": {
              "coding": [
                {
                  "code": "MR",
                  "system": "http://terminology.hl7.org/CodeSystem/v2-0203"
                }
              ]
            },
            "value": "1234567"
          }
        ],
        "name": [
          {
            "family": "MANCHESTER",
            "given": [
              "SANSA"
            ]
          }
        ]
      }
    },
    {
      "fullUrl": "urn:uuid:6b4ac36b-771a-4d38-9092-e3b336afaffa",
      "resource": {
        "resourceType": "Encounter",
        "class": {
          "code": "AMB",
          "system": "http://terminology.hl7.org/CodeSystem/v3-ActCode"
        },
        "identifier": [
          {
            "assigner": {
              "identifier": {
                "system": "https://fhir.nhs.uk/Id/ods-organization-code",
                "value": "R0A"
              }
            },
            "type": {
              "coding": [
                {
                  "code": "VN",
                  "system": "http://terminology.hl7.org/CodeSystem/v2-0203"
                }
              ]
            },
            "value": "1001166717"
          }
        ],
        "status": "finished",
        "subject": {
          "identifier": {
            "system": "https://fhir.nhs.uk/Id/nhs-number",
            "type": {
              "coding": [
                {
                  "code": "NH",
                  "system": "http://terminology.hl7.org/CodeSystem/v2-0203"
                }
              ]
            },
            "value": "9737383192"
          },
          "reference": "urn:uuid:be4d9608-6b56-47b3-bfa1-78fff46fa869"
        }
      }
    },
    {
      "fullUrl": "urn:uuid:d6e8e8be-e2c0-4593-b224-93f8cdb07fbe",
      "resource": {
        "resourceType": "PractitionerRole",
        "practitioner": {
          "display": "Darwin, Samuel",
          "identifier": {
            "system": "https://fhir.hl7.org.uk/Id/gmc-number",
            "value": "C3456789"
          }
        }
      }
    },
    {
      "fullUrl": "urn:uuid:e254b680-5e79-4a73-be54-ada5fcf5961d",
      "resource": {
        "resourceType": "Observation",
        "code": {
          "coding": [
            {
              "code": "GENEAP",
              "display": "GENETICS TEST PERFORMABLE",
              "system": "https://fhir.nwgenomics.nhs.uk/CodeSystem/NWGMSA"
            }
          ]
        },
        "effectiveDateTime": "2025-01-29T10:37:26+00:00",
        "identifier": [
          {
            "assigner": {
              "identifier": {
                "system": "https://fhir.nhs.uk/Id/ods-organization-code",
                "value": "R0A"
              }
            },
            "system": "urn:oid:1.2.840.114350.1.13.861.1.7.2.798268",
            "type": {
              "coding": [
                {
                  "code": "PLAC",
                  "system": "http://terminology.hl7.org/CodeSystem/v2-0203"
                }
              ]
            },
            "value": "160171601"
          },
          {
            "assigner": {
              "identifier": {
                "system": "https://fhir.nhs.uk/Id/ods-organization-code",
                "value": "699X0"
              }
            },
            "system": "http://www.acme.org/servicerequest",
            "type": {
              "coding": [
                {
                  "code": "FILL",
                  "system": "http://terminology.hl7.org/CodeSystem/v2-0203"
                }
              ]
            },
            "value": "1001166717"
          }
        ],
        "performer": [
          {
            "identifier": {
              "system": "https://fhir.nhs.uk/Id/ods-organization-code",
              "value": "699X0"
            },
            "type": "Organization"
          }
        ],
        "status": "final",
        "subject": {
          "identifier": {
            "system": "https://fhir.nhs.uk/Id/nhs-number",
            "type": {
              "coding": [
                {
                  "code": "NH",
                  "system": "http://terminology.hl7.org/CodeSystem/v2-0203"
                }
              ]
            },
            "value": "9737383192"
          },
          "reference": "urn:uuid:be4d9608-6b56-47b3-bfa1-78fff46fa869"
        }
      }
    },
    {
      "fullUrl": "urn:uuid:090dcf6f-7eff-4255-a6bc-213fad30da25",
      "resource": {
        "resourceType": "Observation",
        "code": {
          "coding": [
            {
              "code": "230056",
              "display": "What Type of Referral Do You Require?",
              "system": "https://fhir.nwgenomics.nhs.uk/CodeSystem/NWGMSA"
            }
          ]
        },
        "effectiveDateTime": "2025-01-29T10:37:26+00:00",
        "identifier": [
          {
            "assigner": {
              "identifier": {
                "system": "https://fhir.nhs.uk/Id/ods-organization-code",
                "value": "R0A"
              }
            },
            "system": "urn:oid:1.2.840.114350.1.13.861.1.7.2.798268",
            "type": {
              "coding": [
                {
                  "code": "PLAC",
                  "system": "http://terminology.hl7.org/CodeSystem/v2-0203"
                }
              ]
            },
            "value": "160171601"
          },
          {
            "assigner": {
              "identifier": {
                "system": "https://fhir.nhs.uk/Id/ods-organization-code",
                "value": "699X0"
              }
            },
            "system": "http://www.acme.org/servicerequest",
            "type": {
              "coding": [
                {
                  "code": "FILL",
                  "system": "http://terminology.hl7.org/CodeSystem/v2-0203"
                }
              ]
            },
            "value": "1001166717"
          }
        ],
        "performer": [
          {
            "identifier": {
              "system": "https://fhir.nhs.uk/Id/ods-organization-code",
              "value": "699X0"
            },
            "type": "Organization"
          }
        ],
        "status": "final",
        "subject": {
          "identifier": {
            "system": "https://fhir.nhs.uk/Id/nhs-number",
            "type": {
              "coding": [
                {
                  "code": "NH",
                  "system": "http://terminology.hl7.org/CodeSystem/v2-0203"
                }
              ]
            },
            "value": "9737383192"
          },
          "reference": "urn:uuid:be4d9608-6b56-47b3-bfa1-78fff46fa869"
        },
        "valueCodeableConcept": {
          "coding": [
            {
              "code": "1186936003",
              "display": "Storage of specimen (procedure)"
            }
          ]
        }
      }
    },
    {
      "fullUrl": "urn:uuid:10a9ed59-0f49-454a-837e-ac8446e8b4e8",
      "resource": {
        "resourceType": "Observation",
        "code": {
          "coding": [
            {
              "code": "281269004",
              "display": "High infection risk sample",
              "system": "http://snomed.info/sct"
            }
          ]
        },
        "effectiveDateTime": "2025-01-29T10:37:26+00:00",
        "identifier": [
          {
            "assigner": {
              "identifier": {
                "system": "https://fhir.nhs.uk/Id/ods-organization-code",
                "value": "R0A"
              }
            },
            "system": "urn:oid:1.2.840.114350.1.13.861.1.7.2.798268",
            "type": {
              "coding": [
                {
                  "code": "PLAC",
                  "system": "http://terminology.hl7.org/CodeSystem/v2-0203"
                }
              ]
            },
            "value": "160171601"
          },
          {
            "assigner": {
              "identifier": {
                "system": "https://fhir.nhs.uk/Id/ods-organization-code",
                "value": "699X0"
              }
            },
            "system": "http://www.acme.org/servicerequest",
            "type": {
              "coding": [
                {
                  "code": "FILL",
                  "system": "http://terminology.hl7.org/CodeSystem/v2-0203"
                }
              ]
            },
            "value": "1001166717"
          }
        ],
        "performer": [
          {
            "identifier": {
              "system": "https://fhir.nhs.uk/Id/ods-organization-code",
              "value": "699X0"
            },
            "type": "Organization"
          }
        ],
        "status": "final",
        "subject": {
          "identifier": {
            "system": "https://fhir.nhs.uk/Id/nhs-number",
            "type": {
              "coding": [
                {
                  "code": "NH",
                  "system": "http://terminology.hl7.org/CodeSystem/v2-0203"
                }
              ]
            },
            "value": "9737383192"
          },
          "reference": "urn:uuid:be4d9608-6b56-47b3-bfa1-78fff46fa869"
        },
        "valueCodeableConcept": {
          "coding": [
            {
              "code": "LA32-8",
              "display": "No"
            }
          ]
        }
      }
    },
    {
      "fullUrl": "urn:uuid:da74a27b-8329-4dc0-9a45-31f3df57499c",
      "resource": {
        "resourceType": "Observation",
        "code": {
          "coding": [
            {
              "code": "230016",
              "display": "Test Type",
              "system": "https://fhir.nwgenomics.nhs.uk/CodeSystem/NWGMSA"
            }
          ]
        },
        "effectiveDateTime": "2025-01-29T10:37:26+00:00",
        "identifier": [
          {
            "assigner": {
              "identifier": {
                "system": "https://fhir.nhs.uk/Id/ods-organization-code",
                "value": "R0A"
              }
            },
            "system": "urn:oid:1.2.840.114350.1.13.861.1.7.2.798268",
            "type": {
              "coding": [
                {
                  "code": "PLAC",
                  "system": "http://terminology.hl7.org/CodeSystem/v2-0203"
                }
              ]
            },
            "value": "160171601"
          },
          {
            "assigner": {
              "identifier": {
                "system": "https://fhir.nhs.uk/Id/ods-organization-code",
                "value": "699X0"
              }
            },
            "system": "http://www.acme.org/servicerequest",
            "type": {
              "coding": [
                {
                  "code": "FILL",
                  "system": "http://terminology.hl7.org/CodeSystem/v2-0203"
                }
              ]
            },
            "value": "1001166717"
          }
        ],
        "performer": [
          {
            "identifier": {
              "system": "https://fhir.nhs.uk/Id/ods-organization-code",
              "value": "699X0"
            },
            "type": "Organization"
          }
        ],
        "status": "final",
        "subject": {
          "identifier": {
            "system": "https://fhir.nhs.uk/Id/nhs-number",
            "type": {
              "coding": [
                {
                  "code": "NH",
                  "system": "http://terminology.hl7.org/CodeSystem/v2-0203"
                }
              ]
            },
            "value": "9737383192"
          },
          "reference": "urn:uuid:be4d9608-6b56-47b3-bfa1-78fff46fa869"
        },
        "valueString": "Diagnostic Screen/Test"
      }
    },
    {
      "fullUrl": "urn:uuid:d457ba27-97e2-44e8-bf91-1268ff5481a5",
      "resource": {
        "resourceType": "Observation",
        "code": {
          "coding": [
            {
              "code": "77386006",
              "display": "Pregnancy",
              "system": "http://snomed.info/sct"
            }
          ]
        },
        "effectiveDateTime": "2025-01-29T10:37:26+00:00",
        "identifier": [
          {
            "assigner": {
              "identifier": {
                "system": "https://fhir.nhs.uk/Id/ods-organization-code",
                "value": "R0A"
              }
            },
            "system": "urn:oid:1.2.840.114350.1.13.861.1.7.2.798268",
            "type": {
              "coding": [
                {
                  "code": "PLAC",
                  "system": "http://terminology.hl7.org/CodeSystem/v2-0203"
                }
              ]
            },
            "value": "160171601"
          },
          {
            "assigner": {
              "identifier": {
                "system": "https://fhir.nhs.uk/Id/ods-organization-code",
                "value": "699X0"
              }
            },
            "system": "http://www.acme.org/servicerequest",
            "type": {
              "coding": [
                {
                  "code": "FILL",
                  "system": "http://terminology.hl7.org/CodeSystem/v2-0203"
                }
              ]
            },
            "value": "1001166717"
          }
        ],
        "performer": [
          {
            "identifier": {
              "system": "https://fhir.nhs.uk/Id/ods-organization-code",
              "value": "699X0"
            },
            "type": "Organization"
          }
        ],
        "status": "final",
        "subject": {
          "identifier": {
            "system": "https://fhir.nhs.uk/Id/nhs-number",
            "type": {
              "coding": [
                {
                  "code": "NH",
                  "system": "http://terminology.hl7.org/CodeSystem/v2-0203"
                }
              ]
            },
            "value": "9737383192"
          },
          "reference": "urn:uuid:be4d9608-6b56-47b3-bfa1-78fff46fa869"
        },
        "valueCodeableConcept": {
          "coding": [
            {
              "code": "LA33-6",
              "display": "Yes"
            }
          ]
        }
      }
    },
    {
      "fullUrl": "urn:uuid:b3e8eca9-37db-4ef3-acdf-bebda093514c",
      "resource": {
        "resourceType": "Observation",
        "code": {
          "coding": [
            {
              "code": "231284",
              "display": "Please Select R240 Test(s):",
              "system": "https://fhir.nwgenomics.nhs.uk/CodeSystem/NWGMSA"
            }
          ]
        },
        "effectiveDateTime": "2025-01-29T10:37:26+00:00",
        "identifier": [
          {
            "assigner": {
              "identifier": {
                "system": "https://fhir.nhs.uk/Id/ods-organization-code",
                "value": "R0A"
              }
            },
            "system": "urn:oid:1.2.840.114350.1.13.861.1.7.2.798268",
            "type": {
              "coding": [
                {
                  "code": "PLAC",
                  "system": "http://terminology.hl7.org/CodeSystem/v2-0203"
                }
              ]
            },
            "value": "160171601"
          },
          {
            "assigner": {
              "identifier": {
                "system": "https://fhir.nhs.uk/Id/ods-organization-code",
                "value": "699X0"
              }
            },
            "system": "http://www.acme.org/servicerequest",
            "type": {
              "coding": [
                {
                  "code": "FILL",
                  "system": "http://terminology.hl7.org/CodeSystem/v2-0203"
                }
              ]
            },
            "value": "1001166717"
          }
        ],
        "performer": [
          {
            "identifier": {
              "system": "https://fhir.nhs.uk/Id/ods-organization-code",
              "value": "699X0"
            },
            "type": "Organization"
          }
        ],
        "status": "final",
        "subject": {
          "identifier": {
            "system": "https://fhir.nhs.uk/Id/nhs-number",
            "type": {
              "coding": [
                {
                  "code": "NH",
                  "system": "http://terminology.hl7.org/CodeSystem/v2-0203"
                }
              ]
            },
            "value": "9737383192"
          },
          "reference": "urn:uuid:be4d9608-6b56-47b3-bfa1-78fff46fa869"
        },
        "valueString": "R240.1: Targeted variant testing"
      }
    },
    {
      "fullUrl": "urn:uuid:3a00bc2f-2bbf-41f3-b762-21f47decb171",
      "resource": {
        "resourceType": "Observation",
        "code": {
          "coding": [
            {
              "code": "231285",
              "display": "Please Select R242 Test(s):",
              "system": "https://fhir.nwgenomics.nhs.uk/CodeSystem/NWGMSA"
            }
          ]
        },
        "effectiveDateTime": "2025-01-29T10:37:26+00:00",
        "identifier": [
          {
            "assigner": {
              "identifier": {
                "system": "https://fhir.nhs.uk/Id/ods-organization-code",
                "value": "R0A"
              }
            },
            "system": "urn:oid:1.2.840.114350.1.13.861.1.7.2.798268",
            "type": {
              "coding": [
                {
                  "code": "PLAC",
                  "system": "http://terminology.hl7.org/CodeSystem/v2-0203"
                }
              ]
            },
            "value": "160171601"
          },
          {
            "assigner": {
              "identifier": {
                "system": "https://fhir.nhs.uk/Id/ods-organization-code",
                "value": "699X0"
              }
            },
            "system": "http://www.acme.org/servicerequest",
            "type": {
              "coding": [
                {
                  "code": "FILL",
                  "system": "http://terminology.hl7.org/CodeSystem/v2-0203"
                }
              ]
            },
            "value": "1001166717"
          }
        ],
        "performer": [
          {
            "identifier": {
              "system": "https://fhir.nhs.uk/Id/ods-organization-code",
              "value": "699X0"
            },
            "type": "Organization"
          }
        ],
        "status": "final",
        "subject": {
          "identifier": {
            "system": "https://fhir.nhs.uk/Id/nhs-number",
            "type": {
              "coding": [
                {
                  "code": "NH",
                  "system": "http://terminology.hl7.org/CodeSystem/v2-0203"
                }
              ]
            },
            "value": "9737383192"
          },
          "reference": "urn:uuid:be4d9608-6b56-47b3-bfa1-78fff46fa869"
        },
        "valueString": "R242.1: Targeted variant testing"
      }
    },
    {
      "fullUrl": "urn:uuid:58ffd0da-695f-46f1-9c7c-f741660a2092",
      "resource": {
        "resourceType": "Observation",
        "code": {
          "coding": [
            {
              "code": "230027",
              "display": "Email Addresses of Non-MFT Clinicians for Result Reports",
              "system": "https://fhir.nwgenomics.nhs.uk/CodeSystem/NWGMSA"
            }
          ]
        },
        "effectiveDateTime": "2025-01-29T10:37:26+00:00",
        "identifier": [
          {
            "assigner": {
              "identifier": {
                "system": "https://fhir.nhs.uk/Id/ods-organization-code",
                "value": "R0A"
              }
            },
            "system": "urn:oid:1.2.840.114350.1.13.861.1.7.2.798268",
            "type": {
              "coding": [
                {
                  "code": "PLAC",
                  "system": "http://terminology.hl7.org/CodeSystem/v2-0203"
                }
              ]
            },
            "value": "160171601"
          },
          {
            "assigner": {
              "identifier": {
                "system": "https://fhir.nhs.uk/Id/ods-organization-code",
                "value": "699X0"
              }
            },
            "system": "http://www.acme.org/servicerequest",
            "type": {
              "coding": [
                {
                  "code": "FILL",
                  "system": "http://terminology.hl7.org/CodeSystem/v2-0203"
                }
              ]
            },
            "value": "1001166717"
          }
        ],
        "performer": [
          {
            "identifier": {
              "system": "https://fhir.nhs.uk/Id/ods-organization-code",
              "value": "699X0"
            },
            "type": "Organization"
          }
        ],
        "status": "final",
        "subject": {
          "identifier": {
            "system": "https://fhir.nhs.uk/Id/nhs-number",
            "type": {
              "coding": [
                {
                  "code": "NH",
                  "system": "http://terminology.hl7.org/CodeSystem/v2-0203"
                }
              ]
            },
            "value": "9737383192"
          },
          "reference": "urn:uuid:be4d9608-6b56-47b3-bfa1-78fff46fa869"
        },
        "valueString": "charu"
      }
    },
    {
      "fullUrl": "urn:uuid:077692c1-d7be-4d01-8ded-db43fa244f6b",
      "resource": {
        "resourceType": "Observation",
        "code": {
          "coding": [
            {
              "code": "762911000000102",
              "display": "Informed consent given for treatment",
              "system": "http://snomed.info/sct"
            }
          ]
        },
        "effectiveDateTime": "2025-01-29T10:37:26+00:00",
        "identifier": [
          {
            "assigner": {
              "identifier": {
                "system": "https://fhir.nhs.uk/Id/ods-organization-code",
                "value": "R0A"
              }
            },
            "system": "urn:oid:1.2.840.114350.1.13.861.1.7.2.798268",
            "type": {
              "coding": [
                {
                  "code": "PLAC",
                  "system": "http://terminology.hl7.org/CodeSystem/v2-0203"
                }
              ]
            },
            "value": "160171601"
          },
          {
            "assigner": {
              "identifier": {
                "system": "https://fhir.nhs.uk/Id/ods-organization-code",
                "value": "699X0"
              }
            },
            "system": "http://www.acme.org/servicerequest",
            "type": {
              "coding": [
                {
                  "code": "FILL",
                  "system": "http://terminology.hl7.org/CodeSystem/v2-0203"
                }
              ]
            },
            "value": "1001166717"
          }
        ],
        "performer": [
          {
            "identifier": {
              "system": "https://fhir.nhs.uk/Id/ods-organization-code",
              "value": "699X0"
            },
            "type": "Organization"
          }
        ],
        "status": "final",
        "subject": {
          "identifier": {
            "system": "https://fhir.nhs.uk/Id/nhs-number",
            "type": {
              "coding": [
                {
                  "code": "NH",
                  "system": "http://terminology.hl7.org/CodeSystem/v2-0203"
                }
              ]
            },
            "value": "9737383192"
          },
          "reference": "urn:uuid:be4d9608-6b56-47b3-bfa1-78fff46fa869"
        },
        "valueCodeableConcept": {
          "coding": [
            {
              "code": "LA33-6",
              "display": "Yes"
            }
          ]
        }
      }
    },
    {
      "fullUrl": "urn:uuid:e64e6ce2-d4b5-4249-9ed5-9f6692e2be69",
      "resource": {
        "resourceType": "Observation",
        "code": {
          "coding": [
            {
              "code": "230037",
              "display": "Please Acknowledge That a DNA Sample Will be Stored in the Laboratory on Completion of Testing",
              "system": "https://fhir.nwgenomics.nhs.uk/CodeSystem/NWGMSA"
            }
          ]
        },
        "effectiveDateTime": "2025-01-29T10:37:26+00:00",
        "identifier": [
          {
            "assigner": {
              "identifier": {
                "system": "https://fhir.nhs.uk/Id/ods-organization-code",
                "value": "R0A"
              }
            },
            "system": "urn:oid:1.2.840.114350.1.13.861.1.7.2.798268",
            "type": {
              "coding": [
                {
                  "code": "PLAC",
                  "system": "http://terminology.hl7.org/CodeSystem/v2-0203"
                }
              ]
            },
            "value": "160171601"
          },
          {
            "assigner": {
              "identifier": {
                "system": "https://fhir.nhs.uk/Id/ods-organization-code",
                "value": "699X0"
              }
            },
            "system": "http://www.acme.org/servicerequest",
            "type": {
              "coding": [
                {
                  "code": "FILL",
                  "system": "http://terminology.hl7.org/CodeSystem/v2-0203"
                }
              ]
            },
            "value": "1001166717"
          }
        ],
        "performer": [
          {
            "identifier": {
              "system": "https://fhir.nhs.uk/Id/ods-organization-code",
              "value": "699X0"
            },
            "type": "Organization"
          }
        ],
        "status": "final",
        "subject": {
          "identifier": {
            "system": "https://fhir.nhs.uk/Id/nhs-number",
            "type": {
              "coding": [
                {
                  "code": "NH",
                  "system": "http://terminology.hl7.org/CodeSystem/v2-0203"
                }
              ]
            },
            "value": "9737383192"
          },
          "reference": "urn:uuid:be4d9608-6b56-47b3-bfa1-78fff46fa869"
        },
        "valueString": "Acknowledged"
      }
    },
    {
      "fullUrl": "urn:uuid:1ad5fe16-47b1-4d28-abef-608807fc5733",
      "resource": {
        "resourceType": "Observation",
        "code": {
          "coding": [
            {
              "code": "230039",
              "display": "Is the Person Ordering the Test the Referring Clinician",
              "system": "https://fhir.nwgenomics.nhs.uk/CodeSystem/NWGMSA"
            }
          ]
        },
        "effectiveDateTime": "2025-01-29T10:37:26+00:00",
        "identifier": [
          {
            "assigner": {
              "identifier": {
                "system": "https://fhir.nhs.uk/Id/ods-organization-code",
                "value": "R0A"
              }
            },
            "system": "urn:oid:1.2.840.114350.1.13.861.1.7.2.798268",
            "type": {
              "coding": [
                {
                  "code": "PLAC",
                  "system": "http://terminology.hl7.org/CodeSystem/v2-0203"
                }
              ]
            },
            "value": "160171601"
          },
          {
            "assigner": {
              "identifier": {
                "system": "https://fhir.nhs.uk/Id/ods-organization-code",
                "value": "699X0"
              }
            },
            "system": "http://www.acme.org/servicerequest",
            "type": {
              "coding": [
                {
                  "code": "FILL",
                  "system": "http://terminology.hl7.org/CodeSystem/v2-0203"
                }
              ]
            },
            "value": "1001166717"
          }
        ],
        "performer": [
          {
            "identifier": {
              "system": "https://fhir.nhs.uk/Id/ods-organization-code",
              "value": "699X0"
            },
            "type": "Organization"
          }
        ],
        "status": "final",
        "subject": {
          "identifier": {
            "system": "https://fhir.nhs.uk/Id/nhs-number",
            "type": {
              "coding": [
                {
                  "code": "NH",
                  "system": "http://terminology.hl7.org/CodeSystem/v2-0203"
                }
              ]
            },
            "value": "9737383192"
          },
          "reference": "urn:uuid:be4d9608-6b56-47b3-bfa1-78fff46fa869"
        },
        "valueString": "No"
      }
    },
    {
      "fullUrl": "urn:uuid:c03e0b36-bed0-4d64-989d-d9e92125d632",
      "resource": {
        "resourceType": "Observation",
        "code": {
          "coding": [
            {
              "code": "unknown",
              "display": "Name of Supervising Clinician",
              "system": "https://fhir.nwgenomics.nhs.uk/CodeSystem/NWGMSA"
            }
          ]
        },
        "effectiveDateTime": "2025-01-29T10:37:26+00:00",
        "identifier": [
          {
            "assigner": {
              "identifier": {
                "system": "https://fhir.nhs.uk/Id/ods-organization-code",
                "value": "R0A"
              }
            },
            "system": "urn:oid:1.2.840.114350.1.13.861.1.7.2.798268",
            "type": {
              "coding": [
                {
                  "code": "PLAC",
                  "system": "http://terminology.hl7.org/CodeSystem/v2-0203"
                }
              ]
            },
            "value": "160171601"
          },
          {
            "assigner": {
              "identifier": {
                "system": "https://fhir.nhs.uk/Id/ods-organization-code",
                "value": "699X0"
              }
            },
            "system": "http://www.acme.org/servicerequest",
            "type": {
              "coding": [
                {
                  "code": "FILL",
                  "system": "http://terminology.hl7.org/CodeSystem/v2-0203"
                }
              ]
            },
            "value": "1001166717"
          }
        ],
        "performer": [
          {
            "identifier": {
              "system": "https://fhir.nhs.uk/Id/ods-organization-code",
              "value": "699X0"
            },
            "type": "Organization"
          }
        ],
        "status": "final",
        "subject": {
          "identifier": {
            "system": "https://fhir.nhs.uk/Id/nhs-number",
            "type": {
              "coding": [
                {
                  "code": "NH",
                  "system": "http://terminology.hl7.org/CodeSystem/v2-0203"
                }
              ]
            },
            "value": "9737383192"
          },
          "reference": "urn:uuid:be4d9608-6b56-47b3-bfa1-78fff46fa869"
        },
        "valueString": "DESHPANDE, CHARULATA"
      }
    },
    {
      "fullUrl": "urn:uuid:79352849-4c92-40c8-83fd-22c18be9efab",
      "resource": {
        "resourceType": "Observation",
        "code": {
          "coding": [
            {
              "code": "97209-1",
              "display": "Shipment tracking number",
              "system": "http://loinc.org"
            }
          ]
        },
        "effectiveDateTime": "2025-01-29T10:37:26+00:00",
        "identifier": [
          {
            "assigner": {
              "identifier": {
                "system": "https://fhir.nhs.uk/Id/ods-organization-code",
                "value": "R0A"
              }
            },
            "system": "urn:oid:1.2.840.114350.1.13.861.1.7.2.798268",
            "type": {
              "coding": [
                {
                  "code": "PLAC",
                  "system": "http://terminology.hl7.org/CodeSystem/v2-0203"
                }
              ]
            },
            "value": "160171601"
          },
          {
            "assigner": {
              "identifier": {
                "system": "https://fhir.nhs.uk/Id/ods-organization-code",
                "value": "699X0"
              }
            },
            "system": "http://www.acme.org/servicerequest",
            "type": {
              "coding": [
                {
                  "code": "FILL",
                  "system": "http://terminology.hl7.org/CodeSystem/v2-0203"
                }
              ]
            },
            "value": "1001166717"
          }
        ],
        "performer": [
          {
            "identifier": {
              "system": "https://fhir.nhs.uk/Id/ods-organization-code",
              "value": "699X0"
            },
            "type": "Organization"
          }
        ],
        "status": "final",
        "subject": {
          "identifier": {
            "system": "https://fhir.nhs.uk/Id/nhs-number",
            "type": {
              "coding": [
                {
                  "code": "NH",
                  "system": "http://terminology.hl7.org/CodeSystem/v2-0203"
                }
              ]
            },
            "value": "9737383192"
          },
          "reference": "urn:uuid:be4d9608-6b56-47b3-bfa1-78fff46fa869"
        },
        "valueString": "UK3096580215"
      }
    },
    {
      "fullUrl": "urn:uuid:4f75fe40-0c5e-4d2b-a066-ae5559b0a4af",
      "resource": {
        "resourceType": "Observation",
        "code": {
          "coding": [
            {
              "code": "842009",
              "display": "Consanguinity",
              "system": "http://snomed.info/sct"
            }
          ]
        },
        "effectiveDateTime": "2025-01-29T10:37:26+00:00",
        "identifier": [
          {
            "assigner": {
              "identifier": {
                "system": "https://fhir.nhs.uk/Id/ods-organization-code",
                "value": "R0A"
              }
            },
            "system": "urn:oid:1.2.840.114350.1.13.861.1.7.2.798268",
            "type": {
              "coding": [
                {
                  "code": "PLAC",
                  "system": "http://terminology.hl7.org/CodeSystem/v2-0203"
                }
              ]
            },
            "value": "160171601"
          },
          {
            "assigner": {
              "identifier": {
                "system": "https://fhir.nhs.uk/Id/ods-organization-code",
                "value": "699X0"
              }
            },
            "system": "http://www.acme.org/servicerequest",
            "type": {
              "coding": [
                {
                  "code": "FILL",
                  "system": "http://terminology.hl7.org/CodeSystem/v2-0203"
                }
              ]
            },
            "value": "1001166717"
          }
        ],
        "performer": [
          {
            "identifier": {
              "system": "https://fhir.nhs.uk/Id/ods-organization-code",
              "value": "699X0"
            },
            "type": "Organization"
          }
        ],
        "status": "final",
        "subject": {
          "identifier": {
            "system": "https://fhir.nhs.uk/Id/nhs-number",
            "type": {
              "coding": [
                {
                  "code": "NH",
                  "system": "http://terminology.hl7.org/CodeSystem/v2-0203"
                }
              ]
            },
            "value": "9737383192"
          },
          "reference": "urn:uuid:be4d9608-6b56-47b3-bfa1-78fff46fa869"
        },
        "valueCodeableConcept": {
          "coding": [
            {
              "code": "LA32-8",
              "display": "No"
            }
          ]
        }
      }
    },
    {
      "fullUrl": "urn:uuid:e8636c89-2080-4717-9331-60230b7cdefb",
      "resource": {
        "resourceType": "Observation",
        "code": {
          "coding": [
            {
              "code": "161714006",
              "display": "Estimated date of delivery",
              "system": "http://snomed.info/sct"
            }
          ]
        },
        "effectiveDateTime": "2025-01-29T10:37:26+00:00",
        "identifier": [
          {
            "assigner": {
              "identifier": {
                "system": "https://fhir.nhs.uk/Id/ods-organization-code",
                "value": "R0A"
              }
            },
            "system": "urn:oid:1.2.840.114350.1.13.861.1.7.2.798268",
            "type": {
              "coding": [
                {
                  "code": "PLAC",
                  "system": "http://terminology.hl7.org/CodeSystem/v2-0203"
                }
              ]
            },
            "value": "160171601"
          },
          {
            "assigner": {
              "identifier": {
                "system": "https://fhir.nhs.uk/Id/ods-organization-code",
                "value": "699X0"
              }
            },
            "system": "http://www.acme.org/servicerequest",
            "type": {
              "coding": [
                {
                  "code": "FILL",
                  "system": "http://terminology.hl7.org/CodeSystem/v2-0203"
                }
              ]
            },
            "value": "1001166717"
          }
        ],
        "performer": [
          {
            "identifier": {
              "system": "https://fhir.nhs.uk/Id/ods-organization-code",
              "value": "699X0"
            },
            "type": "Organization"
          }
        ],
        "status": "final",
        "subject": {
          "identifier": {
            "system": "https://fhir.nhs.uk/Id/nhs-number",
            "type": {
              "coding": [
                {
                  "code": "NH",
                  "system": "http://terminology.hl7.org/CodeSystem/v2-0203"
                }
              ]
            },
            "value": "9737383192"
          },
          "reference": "urn:uuid:be4d9608-6b56-47b3-bfa1-78fff46fa869"
        },
        "valueDateTime": "2025-05-12T10:37:26+00:00"
      }
    },
    {
      "fullUrl": "urn:uuid:8d5d10ba-9504-43e2-9f35-1587866a99fc",
      "resource": {
        "resourceType": "Condition",
        "code": {
          "coding": [
            {
              "code": "363349007",
              "display": "Malignant tumour of stomach",
              "system": "http://snomed.info/sct"
            }
          ]
        },
        "onsetDateTime": "2025-01-29T10:37:26+00:00",
        "subject": {
          "identifier": {
            "system": "https://fhir.nhs.uk/Id/nhs-number",
            "type": {
              "coding": [
                {
                  "code": "NH",
                  "system": "http://terminology.hl7.org/CodeSystem/v2-0203"
                }
              ]
            },
            "value": "9737383192"
          },
          "reference": "urn:uuid:be4d9608-6b56-47b3-bfa1-78fff46fa869"
        }
      }
    },
    {
      "fullUrl": "urn:uuid:072122b2-f5e0-4ef2-935e-b0b6b0a51e79",
      "resource": {
        "resourceType": "Specimen",
        "accessionIdentifier": {
          "assigner": {
            "identifier": {
              "system": "https://fhir.nhs.uk/Id/ods-organization-code",
              "value": "699X0"
            }
          },
          "system": "http://www.acme.org/servicerequest",
          "type": {
            "coding": [
              {
                "code": "FILL",
                "system": "http://terminology.hl7.org/CodeSystem/v2-0203"
              }
            ]
          },
          "value": "1001166717"
        },
        "collection": {
          "collectedDateTime": "2025-01-29T10:37:26+00:00"
        },
        "identifier": [
          {
            "assigner": {
              "identifier": {
                "system": "https://fhir.nhs.uk/Id/ods-organization-code",
                "value": "R0A"
              }
            },
            "system": "urn:oid:1.2.840.114350.1.13.861.1.7.2.798268",
            "type": {
              "coding": [
                {
                  "code": "PLAC",
                  "system": "http://terminology.hl7.org/CodeSystem/v2-0203"
                }
              ]
            },
            "value": "25GEN-029GN00001"
          }
        ],
        "status": "available",
        "subject": {
          "identifier": {
            "system": "https://fhir.nhs.uk/Id/nhs-number",
            "type": {
              "coding": [
                {
                  "code": "NH",
                  "system": "http://terminology.hl7.org/CodeSystem/v2-0203"
                }
              ]
            },
            "value": "9737383192"
          },
          "reference": "urn:uuid:be4d9608-6b56-47b3-bfa1-78fff46fa869"
        },
        "type": {
          "coding": [
            {
              "code": "258580003",
              "display": "Whole blood specimen",
              "system": "http://snomed.info/sct"
            }
          ]
        }
      }
    },
    {
      "fullUrl": "urn:uuid:591822c1-21bd-4013-bfae-eda94cadede1",
      "resource": {
        "resourceType": "ServiceRequest",
        "authoredOn": "2025-01-29",
        "category": [
          {
            "coding": [
              {
                "code": "116148004",
                "system": "http://snomed.info/sct"
              }
            ]
          }
        ],
        "code": {
          "coding": [
            {
              "code": "R240.1",
              "system": "https://fhir.nhs.uk/CodeSystem/England-GenomicTestDirectory"
            }
          ]
        },
        "encounter": {
          "identifier": {
            "assigner": {
              "identifier": {
                "system": "https://fhir.nhs.uk/Id/ods-organization-code",
                "value": "R0A"
              }
            },
            "type": {
              "coding": [
                {
                  "code": "VN",
                  "system": "http://terminology.hl7.org/CodeSystem/v2-0203"
                }
              ]
            },
            "value": "1001166717"
          },
          "reference": "urn:uuid:6b4ac36b-771a-4d38-9092-e3b336afaffa"
        },
        "identifier": [
          {
            "assigner": {
              "identifier": {
                "system": "https://fhir.nhs.uk/Id/ods-organization-code",
                "value": "R0A"
              }
            },
            "system": "urn:oid:1.2.840.114350.1.13.861.1.7.2.798268",
            "type": {
              "coding": [
                {
                  "code": "PLAC",
                  "system": "http://terminology.hl7.org/CodeSystem/v2-0203"
                }
              ]
            },
            "value": "160171601"
          },
          {
            "assigner": {
              "identifier": {
                "system": "https://fhir.nhs.uk/Id/ods-organization-code",
                "value": "699X0"
              }
            },
            "system": "http://www.acme.org/servicerequest",
            "type": {
              "coding": [
                {
                  "code": "FILL",
                  "system": "http://terminology.hl7.org/CodeSystem/v2-0203"
                }
              ]
            },
            "value": "1001166717"
          }
        ],
        "intent": "order",
        "note": [
          {
            "text": "Referral lab PLEASE do following tests:\\n\\nTest(s) required: WGS\\nSample type: Blood\\nTransport used: Merlin Courier\\nTracking Number: ABC123\\nSample sent to: LWH Genetics\\nBy: PDAY on: 02/04/25\\n\\nSpeciality Requesting Clinician: PAEDS\\nTest Group: Neurology\\nEthnic Group: White British\\nPatient is from consanguineous union? : Unknown\\nSpecimen Collection Status: Collect & send with order\\nInfection Risk: No Specific Risk\\nClinical details:\\n\\nTESTING\\nContact/Bleep No: 123\\n"
          }
        ],
        "reasonCode": [
          {
            "coding": [
              {
                "code": "363349007",
                "display": "Malignant tumour of stomach",
                "system": "http://snomed.info/sct"
              }
            ]
          },
          {
            "coding": [
              {
                "code": "363349007",
                "display": "Malignant tumour of stomach",
                "system": "http://snomed.info/sct"
              }
            ]
          }
        ],
        "reasonReference": [
          {
            "reference": "urn:uuid:8d5d10ba-9504-43e2-9f35-1587866a99fc",
            "type": "Condition"
          }
        ],
        "requester": {
          "reference": "urn:uuid:d6e8e8be-e2c0-4593-b224-93f8cdb07fbe"
        },
        "specimen": [
          {
            "reference": "urn:uuid:072122b2-f5e0-4ef2-935e-b0b6b0a51e79",
            "type": "Specimen"
          }
        ],
        "status": "active",
        "subject": {
          "identifier": {
            "system": "https://fhir.nhs.uk/Id/nhs-number",
            "type": {
              "coding": [
                {
                  "code": "NH",
                  "system": "http://terminology.hl7.org/CodeSystem/v2-0203"
                }
              ]
            },
            "value": "9737383192"
          },
          "reference": "urn:uuid:be4d9608-6b56-47b3-bfa1-78fff46fa869"
        },
        "supportingInfo": [
          {
            "reference": "urn:uuid:e254b680-5e79-4a73-be54-ada5fcf5961d",
            "type": "Observation"
          },
          {
            "reference": "urn:uuid:090dcf6f-7eff-4255-a6bc-213fad30da25",
            "type": "Observation"
          },
          {
            "reference": "urn:uuid:10a9ed59-0f49-454a-837e-ac8446e8b4e8",
            "type": "Observation"
          },
          {
            "reference": "urn:uuid:da74a27b-8329-4dc0-9a45-31f3df57499c",
            "type": "Observation"
          },
          {
            "reference": "urn:uuid:d457ba27-97e2-44e8-bf91-1268ff5481a5",
            "type": "Observation"
          },
          {
            "reference": "urn:uuid:b3e8eca9-37db-4ef3-acdf-bebda093514c",
            "type": "Observation"
          },
          {
            "reference": "urn:uuid:3a00bc2f-2bbf-41f3-b762-21f47decb171",
            "type": "Observation"
          },
          {
            "reference": "urn:uuid:58ffd0da-695f-46f1-9c7c-f741660a2092",
            "type": "Observation"
          },
          {
            "reference": "urn:uuid:077692c1-d7be-4d01-8ded-db43fa244f6b",
            "type": "Observation"
          },
          {
            "reference": "urn:uuid:e64e6ce2-d4b5-4249-9ed5-9f6692e2be69",
            "type": "Observation"
          },
          {
            "reference": "urn:uuid:1ad5fe16-47b1-4d28-abef-608807fc5733",
            "type": "Observation"
          },
          {
            "reference": "urn:uuid:c03e0b36-bed0-4d64-989d-d9e92125d632",
            "type": "Observation"
          },
          {
            "reference": "urn:uuid:79352849-4c92-40c8-83fd-22c18be9efab",
            "type": "Observation"
          },
          {
            "reference": "urn:uuid:4f75fe40-0c5e-4d2b-a066-ae5559b0a4af",
            "type": "Observation"
          },
          {
            "reference": "urn:uuid:e8636c89-2080-4717-9331-60230b7cdefb",
            "type": "Observation"
          }
        ]
      }
    }
  ],
  "identifier": {
    "value": "urn:uuid:9612365d-52a4-4fab-87e7-8a09d753f095"
  },
  "timestamp": "2024-10-13T10:33:00+00:00",
  "type": "message"
}