{
  "resourceType": "Bundle",
  "entry": [
    {
      "fullUrl": "urn:uuid:3d406426-9b01-432b-9233-ff5c02d6f8aa",
      "resource": {
        "resourceType": "MessageHeader",
        "destination": [
          {
            "endpoint": "https//fhir.mft.nhs.uk/Endpoint/LIMS",
            "receiver": {
              "identifier": {
                "system": "https://fhir.nhs.uk/Id/ods-organization-code",
                "value": "RJZ"
              }
            }
          }
        ],
        "eventCoding": {
          "code": "O21",
          "system": "http://terminology.hl7.org/CodeSystem/v2-0003"
        },
        "focus": [
          {
            "reference": "urn:uuid:c9bf3487-32d9-488d-b43a-5c0a30213c4f"
          }
        ],
        "sender": {
          "identifier": {
            "system": "https://fhir.nhs.uk/Id/ods-organization-code",
            "value": "RAX"
          }
        },
        "source": {
          "endpoint": "https://fhir.nwgenomics.nhs.uk/Endpoint/HIVE",
          "software": "NW GLH"
        }
      }
    },
    {
      "fullUrl": "urn:uuid:0bcbf013-9853-4e41-b885-15306b2bba96",
      "resource": {
        "resourceType": "Patient",
        "address": [
          {
            "line": [
              "2 Barclay Close",
              "Fetcham"
            ],
            "postalCode": "SE1 2AA"
          }
        ],
        "birthDate": "1973-10-03",
        "gender": "female",
        "identifier": [
          {
            "system": "https://fhir.nhs.uk/Id/nhs-number",
            "type": {
              "coding": [
                {
                  "code": "NH",
                  "system": "http://terminology.hl7.org/CodeSystem/v2-0203"
                }
              ]
            },
            "value": "9737383230"
          },
          {
            "assigner": {
              "identifier": {
                "system": "https://fhir.nhs.uk/Id/ods-organization-code",
                "value": "RPY"
              }
            },
            "system": "urn:oid:1.2.840.114350.1.13.611.3.7.5.737384.14",
            "type": {
              "coding": [
                {
                  "code": "MR",
                  "system": "http://terminology.hl7.org/CodeSystem/v2-0203"
                }
              ]
            },
            "value": "1234567"
          }
        ],
        "name": [
          {
            "family": "London",
            "given": [
              "Cersei"
            ]
          }
        ]
      }
    },
    {
      "fullUrl": "urn:uuid:e81f2e1c-fd0a-4bdb-8482-62cb68d1d9ac",
      "resource": {
        "resourceType": "Encounter",
        "class": {
          "code": "OBSENC",
          "system": "http://terminology.hl7.org/CodeSystem/v3-ActCode"
        },
        "identifier": [
          {
            "assigner": {
              "identifier": {
                "system": "https://fhir.nhs.uk/Id/ods-organization-code",
                "value": "RPY"
              }
            },
            "type": {
              "coding": [
                {
                  "code": "VN",
                  "system": "http://terminology.hl7.org/CodeSystem/v2-0203"
                }
              ]
            },
            "value": "1001166717"
          }
        ],
        "status": "finished",
        "subject": {
          "identifier": {
            "system": "https://fhir.nhs.uk/Id/nhs-number",
            "type": {
              "coding": [
                {
                  "code": "NH",
                  "system": "http://terminology.hl7.org/CodeSystem/v2-0203"
                }
              ]
            },
            "value": "9737383230"
          },
          "reference": "urn:uuid:0bcbf013-9853-4e41-b885-15306b2bba96"
        }
      }
    },
    {
      "fullUrl": "urn:uuid:74af74d8-c0d2-47da-af90-5703945d5d27",
      "resource": {
        "resourceType": "PractitionerRole",
        "practitioner": {
          "display": "Smith, Hazel",
          "identifier": {
            "value": "9999999998"
          }
        }
      }
    },
    {
      "fullUrl": "urn:uuid:23240701-8531-4b1e-abde-a98b9eefc872",
      "resource": {
        "resourceType": "Observation",
        "code": {
          "coding": [
            {
              "code": "128462008",
              "display": "Metastatic malignant neoplasm (disorder)",
              "system": "http://snomed.info/sct"
            }
          ]
        },
        "effectiveDateTime": "2023-09-08",
        "identifier": [
          {
            "assigner": {
              "identifier": {
                "system": "https://fhir.nhs.uk/Id/ods-organization-code",
                "value": "RPY"
              }
            },
            "system": "urn:oid:1.2.840.114350.1.13.861.1.7.2.798268",
            "type": {
              "coding": [
                {
                  "code": "PLAC",
                  "system": "http://terminology.hl7.org/CodeSystem/v2-0203"
                }
              ]
            },
            "value": "160171601"
          }
        ],
        "performer": [
          {
            "identifier": {
              "system": "https://fhir.nhs.uk/Id/ods-organization-code",
              "value": "699X0"
            },
            "type": "Organization"
          }
        ],
        "status": "final",
        "subject": {
          "identifier": {
            "system": "https://fhir.nhs.uk/Id/nhs-number",
            "type": {
              "coding": [
                {
                  "code": "NH",
                  "system": "http://terminology.hl7.org/CodeSystem/v2-0203"
                }
              ]
            },
            "value": "9737383230"
          },
          "reference": "urn:uuid:0bcbf013-9853-4e41-b885-15306b2bba96"
        }
      }
    },
    {
      "fullUrl": "urn:uuid:e8f5b265-5038-4f40-bb81-d8a40a0910b6",
      "resource": {
        "resourceType": "Observation",
        "code": {
          "coding": [
            {
              "code": "6574001",
              "display": "Necrosis (morphologic abnormality)",
              "system": "http://snomed.info/sct"
            }
          ]
        },
        "effectiveDateTime": "2023-09-08",
        "identifier": [
          {
            "assigner": {
              "identifier": {
                "system": "https://fhir.nhs.uk/Id/ods-organization-code",
                "value": "RPY"
              }
            },
            "system": "urn:oid:1.2.840.114350.1.13.861.1.7.2.798268",
            "type": {
              "coding": [
                {
                  "code": "PLAC",
                  "system": "http://terminology.hl7.org/CodeSystem/v2-0203"
                }
              ]
            },
            "value": "160171601"
          }
        ],
        "performer": [
          {
            "identifier": {
              "system": "https://fhir.nhs.uk/Id/ods-organization-code",
              "value": "699X0"
            },
            "type": "Organization"
          }
        ],
        "status": "final",
        "subject": {
          "identifier": {
            "system": "https://fhir.nhs.uk/Id/nhs-number",
            "type": {
              "coding": [
                {
                  "code": "NH",
                  "system": "http://terminology.hl7.org/CodeSystem/v2-0203"
                }
              ]
            },
            "value": "9737383230"
          },
          "reference": "urn:uuid:0bcbf013-9853-4e41-b885-15306b2bba96"
        }
      }
    },
    {
      "fullUrl": "urn:uuid:0ad7b005-471d-42c5-aeb0-1e426511016f",
      "resource": {
        "resourceType": "Specimen",
        "collection": {
          "collectedDateTime": "2023-09-09T11:00:00+00:00"
        },
        "identifier": [
          {
            "type": {
              "coding": [
                {
                  "code": "PLAC",
                  "system": "http://terminology.hl7.org/CodeSystem/v2-0203"
                }
              ]
            },
            "value": "RA257630"
          }
        ],
        "status": "available",
        "subject": {
          "identifier": {
            "system": "https://fhir.nhs.uk/Id/nhs-number",
            "type": {
              "coding": [
                {
                  "code": "NH",
                  "system": "http://terminology.hl7.org/CodeSystem/v2-0203"
                }
              ]
            },
            "value": "9737383230"
          },
          "reference": "urn:uuid:0bcbf013-9853-4e41-b885-15306b2bba96"
        },
        "type": {
          "coding": [
            {
              "code": "364611000000101",
              "display": "Tissue resection sample",
              "system": "http://snomed.info/sct"
            }
          ]
        }
      }
    },
    {
      "fullUrl": "urn:uuid:c9bf3487-32d9-488d-b43a-5c0a30213c4f",
      "resource": {
        "resourceType": "ServiceRequest",
        "authoredOn": "2023-09-08",
        "category": [
          {
            "coding": [
              {
                "code": "116148004",
                "system": "http://snomed.info/sct"
              }
            ]
          }
        ],
        "code": {
          "coding": [
            {
              "code": "M119.5",
              "display": "Multi Target NGS Panel Small",
              "system": "https://fhir.nhs.uk/CodeSystem/England-GenomicTestDirectory"
            }
          ]
        },
        "encounter": {
          "identifier": {
            "assigner": {
              "identifier": {
                "system": "https://fhir.nhs.uk/Id/ods-organization-code",
                "value": "RPY"
              }
            },
            "type": {
              "coding": [
                {
                  "code": "VN",
                  "system": "http://terminology.hl7.org/CodeSystem/v2-0203"
                }
              ]
            },
            "value": "1001166717"
          },
          "reference": "urn:uuid:e81f2e1c-fd0a-4bdb-8482-62cb68d1d9ac"
        },
        "identifier": [
          {
            "assigner": {
              "identifier": {
                "system": "https://fhir.nhs.uk/Id/ods-organization-code",
                "value": "RPY"
              }
            },
            "system": "urn:oid:1.2.840.114350.1.13.861.1.7.2.798268",
            "type": {
              "coding": [
                {
                  "code": "PLAC",
                  "system": "http://terminology.hl7.org/CodeSystem/v2-0203"
                }
              ]
            },
            "value": "160171601"
          }
        ],
        "intent": "order",
        "note": [
          {
            "text": "Free text for diagnosis/reason for referral, transplant, life status at time of request details/ e.g. malignant tumour - molecular assessment will aid management\\n"
          }
        ],
        "reasonCode": [
          {
            "coding": [
              {
                "code": "363358000",
                "display": "Malignant tumour of lung",
                "system": "http://snomed.info/sct"
              }
            ]
          },
          {
            "coding": [
              {
                "code": "relapse",
                "display": "Relapse",
                "system": "https://fhir.nhs.uk/CodeSystem/reasonfortesting-genomics"
              }
            ]
          }
        ],
        "requester": {
          "reference": "urn:uuid:74af74d8-c0d2-47da-af90-5703945d5d27"
        },
        "specimen": [
          {
            "reference": "urn:uuid:0ad7b005-471d-42c5-aeb0-1e426511016f",
            "type": "Specimen"
          }
        ],
        "status": "active",
        "subject": {
          "identifier": {
            "system": "https://fhir.nhs.uk/Id/nhs-number",
            "type": {
              "coding": [
                {
                  "code": "NH",
                  "system": "http://terminology.hl7.org/CodeSystem/v2-0203"
                }
              ]
            },
            "value": "9737383230"
          },
          "reference": "urn:uuid:0bcbf013-9853-4e41-b885-15306b2bba96"
        },
        "supportingInfo": [
          {
            "reference": "urn:uuid:23240701-8531-4b1e-abde-a98b9eefc872",
            "type": "Observation"
          },
          {
            "reference": "urn:uuid:e8f5b265-5038-4f40-bb81-d8a40a0910b6",
            "type": "Observation"
          }
        ]
      }
    }
  ],
  "identifier": {
    "value": "156bb6ab-15e7-42f3-a819-ecd16a5b4fbd"
  },
  "timestamp": "2024-10-13T10:33:00+00:00",
  "type": "message"
}