{
  "resourceType": "Bundle",
  "entry": [
    {
      "fullUrl": "urn:uuid:d5aea70a-c75a-4406-b7b4-62d95e19ae1b",
      "resource": {
        "resourceType": "MessageHeader",
        "destination": [
          {
            "endpoint": "https//fhir.mft.nhs.uk/Endpoint/LIMS",
            "receiver": {
              "identifier": {
                "system": "https://fhir.nhs.uk/Id/ods-organization-code",
                "value": "699X0"
              }
            }
          }
        ],
        "eventCoding": {
          "code": "O21",
          "system": "http://terminology.hl7.org/CodeSystem/v2-0003"
        },
        "focus": [
          {
            "reference": "urn:uuid:75fc00c7-ba55-433e-8922-cc24229337ba"
          }
        ],
        "sender": {
          "identifier": {
            "system": "https://fhir.nhs.uk/Id/ods-organization-code",
            "value": "R0A"
          }
        },
        "source": {
          "endpoint": "https://fhir.north-west.england.nhs.uk/Endpoint/HIVE",
          "software": "NW GLH"
        }
      }
    },
    {
      "fullUrl": "urn:uuid:3b206c5c-4816-4f9b-ab38-3590b9845d9a",
      "resource": {
        "resourceType": "Patient",
        "address": [
          {
            "postalCode": "M13 9PL"
          }
        ],
        "birthDate": "1972-09-21",
        "gender": "female",
        "identifier": [
          {
            "system": "https://fhir.nhs.uk/Id/nhs-number",
            "type": {
              "coding": [
                {
                  "code": "NH",
                  "system": "http://terminology.hl7.org/CodeSystem/v2-0203"
                }
              ]
            },
            "value": "9737383192"
          },
          {
            "assigner": {
              "identifier": {
                "system": "https://fhir.nhs.uk/Id/ods-organization-code",
                "value": "R0A"
              }
            },
            "system": "urn:oid:1.2.840.114350.1.13.611.3.7.5.737384.14",
            "type": {
              "coding": [
                {
                  "code": "MR",
                  "system": "http://terminology.hl7.org/CodeSystem/v2-0203"
                }
              ]
            },
            "value": "1234567"
          }
        ],
        "name": [
          {
            "family": "MANCHESTER",
            "given": [
              "SANSA"
            ]
          }
        ]
      }
    },
    {
      "fullUrl": "urn:uuid:d636da2b-5600-452d-a129-a4d1efeb3374",
      "resource": {
        "resourceType": "Encounter",
        "class": {
          "code": "AMB",
          "system": "http://terminology.hl7.org/CodeSystem/v3-ActCode"
        },
        "identifier": [
          {
            "system": "https://nw-gmsa.github.io/Id/VN",
            "type": {
              "coding": [
                {
                  "code": "VN",
                  "system": "http://terminology.hl7.org/CodeSystem/v2-0203"
                }
              ]
            },
            "value": "1001166717"
          }
        ],
        "status": "finished",
        "subject": {
          "identifier": {
            "system": "https://fhir.nhs.uk/Id/nhs-number",
            "type": {
              "coding": [
                {
                  "code": "NH",
                  "system": "http://terminology.hl7.org/CodeSystem/v2-0203"
                }
              ]
            },
            "value": "9737383192"
          },
          "reference": "urn:uuid:3b206c5c-4816-4f9b-ab38-3590b9845d9a"
        }
      }
    },
    {
      "fullUrl": "urn:uuid:87a45454-0c7b-4cbe-a430-5637d19db0aa",
      "resource": {
        "resourceType": "PractitionerRole",
        "organization": {
          "identifier": {
            "system": "https://fhir.nhs.uk/Id/ods-organization-code",
            "value": "R0A"
          }
        },
        "practitioner": {
          "display": "Darwin, Samuel",
          "identifier": {
            "system": "https://fhir.hl7.org.uk/Id/gmc-number",
            "value": "C3456789"
          }
        }
      }
    },
    {
      "fullUrl": "urn:uuid:f15463eb-305a-41b7-95f0-fb0b943d8c8e",
      "resource": {
        "resourceType": "Observation",
        "code": {
          "coding": [
            {
              "code": "GENEAP",
              "display": "GENETICS TEST PERFORMABLE",
              "system": "https://fhir.nwgenomics.nhs.uk/CodeSystem/NWGMSA"
            }
          ]
        },
        "effectiveDateTime": "2025-01-29T10:37:26+00:00",
        "identifier": [
          {
            "assigner": {
              "identifier": {
                "system": "https://fhir.nhs.uk/Id/ods-organization-code",
                "value": "ODS"
              }
            },
            "system": "https://fhir.nwgenomics.nhs.uk/Id/ResourceIdentifier",
            "value": "ODS-1601737-GENEAP-NWGMSA"
          }
        ],
        "performer": [
          {
            "identifier": {
              "system": "https://fhir.nhs.uk/Id/ods-organization-code",
              "value": "699X0"
            },
            "type": "Organization"
          }
        ],
        "status": "final",
        "subject": {
          "identifier": {
            "system": "https://fhir.nhs.uk/Id/nhs-number",
            "type": {
              "coding": [
                {
                  "code": "NH",
                  "system": "http://terminology.hl7.org/CodeSystem/v2-0203"
                }
              ]
            },
            "value": "9737383192"
          },
          "reference": "urn:uuid:3b206c5c-4816-4f9b-ab38-3590b9845d9a"
        }
      }
    },
    {
      "fullUrl": "urn:uuid:0be7973a-c341-44f2-b7ef-33f896091665",
      "resource": {
        "resourceType": "Observation",
        "code": {
          "coding": [
            {
              "code": "230056",
              "display": "What Type of Referral Do You Require?",
              "system": "https://fhir.nwgenomics.nhs.uk/CodeSystem/NWGMSA"
            }
          ]
        },
        "effectiveDateTime": "2025-01-29T10:37:26+00:00",
        "identifier": [
          {
            "assigner": {
              "identifier": {
                "system": "https://fhir.nhs.uk/Id/ods-organization-code",
                "value": "ODS"
              }
            },
            "system": "https://fhir.nwgenomics.nhs.uk/Id/ResourceIdentifier",
            "value": "ODS-1601737-230056-NWGMSA"
          }
        ],
        "performer": [
          {
            "identifier": {
              "system": "https://fhir.nhs.uk/Id/ods-organization-code",
              "value": "699X0"
            },
            "type": "Organization"
          }
        ],
        "status": "final",
        "subject": {
          "identifier": {
            "system": "https://fhir.nhs.uk/Id/nhs-number",
            "type": {
              "coding": [
                {
                  "code": "NH",
                  "system": "http://terminology.hl7.org/CodeSystem/v2-0203"
                }
              ]
            },
            "value": "9737383192"
          },
          "reference": "urn:uuid:3b206c5c-4816-4f9b-ab38-3590b9845d9a"
        },
        "valueCodeableConcept": {
          "coding": [
            {
              "code": "1186936003",
              "display": "Storage of specimen (procedure)"
            }
          ]
        }
      }
    },
    {
      "fullUrl": "urn:uuid:3b038903-15d5-408b-bd52-1b6ed3e7c333",
      "resource": {
        "resourceType": "Observation",
        "code": {
          "coding": [
            {
              "code": "281269004",
              "display": "High infection risk sample",
              "system": "http://snomed.info/sct"
            }
          ]
        },
        "effectiveDateTime": "2025-01-29T10:37:26+00:00",
        "identifier": [
          {
            "assigner": {
              "identifier": {
                "system": "https://fhir.nhs.uk/Id/ods-organization-code",
                "value": "ODS"
              }
            },
            "system": "https://fhir.nwgenomics.nhs.uk/Id/ResourceIdentifier",
            "value": "ODS-1601737-281269004-SNM3"
          }
        ],
        "performer": [
          {
            "identifier": {
              "system": "https://fhir.nhs.uk/Id/ods-organization-code",
              "value": "699X0"
            },
            "type": "Organization"
          }
        ],
        "status": "final",
        "subject": {
          "identifier": {
            "system": "https://fhir.nhs.uk/Id/nhs-number",
            "type": {
              "coding": [
                {
                  "code": "NH",
                  "system": "http://terminology.hl7.org/CodeSystem/v2-0203"
                }
              ]
            },
            "value": "9737383192"
          },
          "reference": "urn:uuid:3b206c5c-4816-4f9b-ab38-3590b9845d9a"
        },
        "valueCodeableConcept": {
          "coding": [
            {
              "code": "LA32-8",
              "display": "No"
            }
          ]
        }
      }
    },
    {
      "fullUrl": "urn:uuid:1f4dff16-b2d8-4a18-9eb3-af0a9629aa55",
      "resource": {
        "resourceType": "Observation",
        "code": {
          "coding": [
            {
              "code": "230016",
              "display": "Test Type",
              "system": "https://fhir.nwgenomics.nhs.uk/CodeSystem/NWGMSA"
            }
          ]
        },
        "effectiveDateTime": "2025-01-29T10:37:26+00:00",
        "identifier": [
          {
            "assigner": {
              "identifier": {
                "system": "https://fhir.nhs.uk/Id/ods-organization-code",
                "value": "ODS"
              }
            },
            "system": "https://fhir.nwgenomics.nhs.uk/Id/ResourceIdentifier",
            "value": "ODS-1601737-230016-NWGMSA"
          }
        ],
        "performer": [
          {
            "identifier": {
              "system": "https://fhir.nhs.uk/Id/ods-organization-code",
              "value": "699X0"
            },
            "type": "Organization"
          }
        ],
        "status": "final",
        "subject": {
          "identifier": {
            "system": "https://fhir.nhs.uk/Id/nhs-number",
            "type": {
              "coding": [
                {
                  "code": "NH",
                  "system": "http://terminology.hl7.org/CodeSystem/v2-0203"
                }
              ]
            },
            "value": "9737383192"
          },
          "reference": "urn:uuid:3b206c5c-4816-4f9b-ab38-3590b9845d9a"
        },
        "valueString": "Diagnostic Screen/Test"
      }
    },
    {
      "fullUrl": "urn:uuid:261c1f8f-15e2-4a28-a0a4-609544a6c38f",
      "resource": {
        "resourceType": "Observation",
        "code": {
          "coding": [
            {
              "code": "77386006",
              "display": "Pregnancy",
              "system": "http://snomed.info/sct"
            }
          ]
        },
        "effectiveDateTime": "2025-01-29T10:37:26+00:00",
        "identifier": [
          {
            "assigner": {
              "identifier": {
                "system": "https://fhir.nhs.uk/Id/ods-organization-code",
                "value": "ODS"
              }
            },
            "system": "https://fhir.nwgenomics.nhs.uk/Id/ResourceIdentifier",
            "value": "ODS-1601737-77386006-SNM3"
          }
        ],
        "performer": [
          {
            "identifier": {
              "system": "https://fhir.nhs.uk/Id/ods-organization-code",
              "value": "699X0"
            },
            "type": "Organization"
          }
        ],
        "status": "final",
        "subject": {
          "identifier": {
            "system": "https://fhir.nhs.uk/Id/nhs-number",
            "type": {
              "coding": [
                {
                  "code": "NH",
                  "system": "http://terminology.hl7.org/CodeSystem/v2-0203"
                }
              ]
            },
            "value": "9737383192"
          },
          "reference": "urn:uuid:3b206c5c-4816-4f9b-ab38-3590b9845d9a"
        },
        "valueCodeableConcept": {
          "coding": [
            {
              "code": "LA33-6",
              "display": "Yes"
            }
          ]
        }
      }
    },
    {
      "fullUrl": "urn:uuid:fdcce806-4188-4871-9adb-f2a0853c24ba",
      "resource": {
        "resourceType": "Observation",
        "code": {
          "coding": [
            {
              "code": "231284",
              "display": "Please Select R240 Test(s):",
              "system": "https://fhir.nwgenomics.nhs.uk/CodeSystem/NWGMSA"
            }
          ]
        },
        "effectiveDateTime": "2025-01-29T10:37:26+00:00",
        "identifier": [
          {
            "assigner": {
              "identifier": {
                "system": "https://fhir.nhs.uk/Id/ods-organization-code",
                "value": "ODS"
              }
            },
            "system": "https://fhir.nwgenomics.nhs.uk/Id/ResourceIdentifier",
            "value": "ODS-1601737-231284-NWGMSA"
          }
        ],
        "performer": [
          {
            "identifier": {
              "system": "https://fhir.nhs.uk/Id/ods-organization-code",
              "value": "699X0"
            },
            "type": "Organization"
          }
        ],
        "status": "final",
        "subject": {
          "identifier": {
            "system": "https://fhir.nhs.uk/Id/nhs-number",
            "type": {
              "coding": [
                {
                  "code": "NH",
                  "system": "http://terminology.hl7.org/CodeSystem/v2-0203"
                }
              ]
            },
            "value": "9737383192"
          },
          "reference": "urn:uuid:3b206c5c-4816-4f9b-ab38-3590b9845d9a"
        },
        "valueString": "R240.1: Targeted variant testing"
      }
    },
    {
      "fullUrl": "urn:uuid:9957c3de-bb93-409d-afdb-1c4df4ebbb3e",
      "resource": {
        "resourceType": "Observation",
        "code": {
          "coding": [
            {
              "code": "231285",
              "display": "Please Select R242 Test(s):",
              "system": "https://fhir.nwgenomics.nhs.uk/CodeSystem/NWGMSA"
            }
          ]
        },
        "effectiveDateTime": "2025-01-29T10:37:26+00:00",
        "identifier": [
          {
            "assigner": {
              "identifier": {
                "system": "https://fhir.nhs.uk/Id/ods-organization-code",
                "value": "ODS"
              }
            },
            "system": "https://fhir.nwgenomics.nhs.uk/Id/ResourceIdentifier",
            "value": "ODS-1601737-231285-NWGMSA"
          }
        ],
        "performer": [
          {
            "identifier": {
              "system": "https://fhir.nhs.uk/Id/ods-organization-code",
              "value": "699X0"
            },
            "type": "Organization"
          }
        ],
        "status": "final",
        "subject": {
          "identifier": {
            "system": "https://fhir.nhs.uk/Id/nhs-number",
            "type": {
              "coding": [
                {
                  "code": "NH",
                  "system": "http://terminology.hl7.org/CodeSystem/v2-0203"
                }
              ]
            },
            "value": "9737383192"
          },
          "reference": "urn:uuid:3b206c5c-4816-4f9b-ab38-3590b9845d9a"
        },
        "valueString": "R242.1: Targeted variant testing"
      }
    },
    {
      "fullUrl": "urn:uuid:ab063279-ce72-452b-8e8f-fd1cd9dd6bea",
      "resource": {
        "resourceType": "Observation",
        "code": {
          "coding": [
            {
              "code": "230027",
              "display": "Email Addresses of Non-MFT Clinicians for Result Reports",
              "system": "https://fhir.nwgenomics.nhs.uk/CodeSystem/NWGMSA"
            }
          ]
        },
        "effectiveDateTime": "2025-01-29T10:37:26+00:00",
        "identifier": [
          {
            "assigner": {
              "identifier": {
                "system": "https://fhir.nhs.uk/Id/ods-organization-code",
                "value": "ODS"
              }
            },
            "system": "https://fhir.nwgenomics.nhs.uk/Id/ResourceIdentifier",
            "value": "ODS-1601737-230027-NWGMSA"
          }
        ],
        "performer": [
          {
            "identifier": {
              "system": "https://fhir.nhs.uk/Id/ods-organization-code",
              "value": "699X0"
            },
            "type": "Organization"
          }
        ],
        "status": "final",
        "subject": {
          "identifier": {
            "system": "https://fhir.nhs.uk/Id/nhs-number",
            "type": {
              "coding": [
                {
                  "code": "NH",
                  "system": "http://terminology.hl7.org/CodeSystem/v2-0203"
                }
              ]
            },
            "value": "9737383192"
          },
          "reference": "urn:uuid:3b206c5c-4816-4f9b-ab38-3590b9845d9a"
        },
        "valueString": "charu"
      }
    },
    {
      "fullUrl": "urn:uuid:d7465107-b9ae-49b6-adb8-fdfb7adf5c41",
      "resource": {
        "resourceType": "Observation",
        "code": {
          "coding": [
            {
              "code": "762911000000102",
              "display": "Informed consent given for treatment",
              "system": "http://snomed.info/sct"
            }
          ]
        },
        "effectiveDateTime": "2025-01-29T10:37:26+00:00",
        "identifier": [
          {
            "assigner": {
              "identifier": {
                "system": "https://fhir.nhs.uk/Id/ods-organization-code",
                "value": "ODS"
              }
            },
            "system": "https://fhir.nwgenomics.nhs.uk/Id/ResourceIdentifier",
            "value": "ODS-1601737-762911000000102-SNM3"
          }
        ],
        "performer": [
          {
            "identifier": {
              "system": "https://fhir.nhs.uk/Id/ods-organization-code",
              "value": "699X0"
            },
            "type": "Organization"
          }
        ],
        "status": "final",
        "subject": {
          "identifier": {
            "system": "https://fhir.nhs.uk/Id/nhs-number",
            "type": {
              "coding": [
                {
                  "code": "NH",
                  "system": "http://terminology.hl7.org/CodeSystem/v2-0203"
                }
              ]
            },
            "value": "9737383192"
          },
          "reference": "urn:uuid:3b206c5c-4816-4f9b-ab38-3590b9845d9a"
        },
        "valueCodeableConcept": {
          "coding": [
            {
              "code": "LA33-6",
              "display": "Yes"
            }
          ]
        }
      }
    },
    {
      "fullUrl": "urn:uuid:6f92a028-089e-4b15-a128-aaa9e345206a",
      "resource": {
        "resourceType": "Observation",
        "code": {
          "coding": [
            {
              "code": "230037",
              "display": "Please Acknowledge That a DNA Sample Will be Stored in the Laboratory on Completion of Testing",
              "system": "https://fhir.nwgenomics.nhs.uk/CodeSystem/NWGMSA"
            }
          ]
        },
        "effectiveDateTime": "2025-01-29T10:37:26+00:00",
        "identifier": [
          {
            "assigner": {
              "identifier": {
                "system": "https://fhir.nhs.uk/Id/ods-organization-code",
                "value": "ODS"
              }
            },
            "system": "https://fhir.nwgenomics.nhs.uk/Id/ResourceIdentifier",
            "value": "ODS-1601737-230037-NWGMSA"
          }
        ],
        "performer": [
          {
            "identifier": {
              "system": "https://fhir.nhs.uk/Id/ods-organization-code",
              "value": "699X0"
            },
            "type": "Organization"
          }
        ],
        "status": "final",
        "subject": {
          "identifier": {
            "system": "https://fhir.nhs.uk/Id/nhs-number",
            "type": {
              "coding": [
                {
                  "code": "NH",
                  "system": "http://terminology.hl7.org/CodeSystem/v2-0203"
                }
              ]
            },
            "value": "9737383192"
          },
          "reference": "urn:uuid:3b206c5c-4816-4f9b-ab38-3590b9845d9a"
        },
        "valueString": "Acknowledged"
      }
    },
    {
      "fullUrl": "urn:uuid:f1174995-2be3-4268-b070-e6f977a3e4ba",
      "resource": {
        "resourceType": "Observation",
        "code": {
          "coding": [
            {
              "code": "230039",
              "display": "Is the Person Ordering the Test the Referring Clinician",
              "system": "https://fhir.nwgenomics.nhs.uk/CodeSystem/NWGMSA"
            }
          ]
        },
        "effectiveDateTime": "2025-01-29T10:37:26+00:00",
        "identifier": [
          {
            "assigner": {
              "identifier": {
                "system": "https://fhir.nhs.uk/Id/ods-organization-code",
                "value": "ODS"
              }
            },
            "system": "https://fhir.nwgenomics.nhs.uk/Id/ResourceIdentifier",
            "value": "ODS-1601737-230039-NWGMSA"
          }
        ],
        "performer": [
          {
            "identifier": {
              "system": "https://fhir.nhs.uk/Id/ods-organization-code",
              "value": "699X0"
            },
            "type": "Organization"
          }
        ],
        "status": "final",
        "subject": {
          "identifier": {
            "system": "https://fhir.nhs.uk/Id/nhs-number",
            "type": {
              "coding": [
                {
                  "code": "NH",
                  "system": "http://terminology.hl7.org/CodeSystem/v2-0203"
                }
              ]
            },
            "value": "9737383192"
          },
          "reference": "urn:uuid:3b206c5c-4816-4f9b-ab38-3590b9845d9a"
        },
        "valueString": "No"
      }
    },
    {
      "fullUrl": "urn:uuid:c09b35ee-9d64-4120-a510-f91eaa92ebbe",
      "resource": {
        "resourceType": "Observation",
        "code": {
          "coding": [
            {
              "code": "unknown",
              "display": "Name of Supervising Clinician",
              "system": "https://fhir.nwgenomics.nhs.uk/CodeSystem/NWGMSA"
            }
          ]
        },
        "effectiveDateTime": "2025-01-29T10:37:26+00:00",
        "identifier": [
          {
            "assigner": {
              "identifier": {
                "system": "https://fhir.nhs.uk/Id/ods-organization-code",
                "value": "ODS"
              }
            },
            "system": "https://fhir.nwgenomics.nhs.uk/Id/ResourceIdentifier",
            "value": "ODS-1601737-unknown-NWGMSA"
          }
        ],
        "performer": [
          {
            "identifier": {
              "system": "https://fhir.nhs.uk/Id/ods-organization-code",
              "value": "699X0"
            },
            "type": "Organization"
          }
        ],
        "status": "final",
        "subject": {
          "identifier": {
            "system": "https://fhir.nhs.uk/Id/nhs-number",
            "type": {
              "coding": [
                {
                  "code": "NH",
                  "system": "http://terminology.hl7.org/CodeSystem/v2-0203"
                }
              ]
            },
            "value": "9737383192"
          },
          "reference": "urn:uuid:3b206c5c-4816-4f9b-ab38-3590b9845d9a"
        },
        "valueString": "DESHPANDE, CHARULATA"
      }
    },
    {
      "fullUrl": "urn:uuid:1b0917d5-2cf8-4f39-9082-6c460fef9bc8",
      "resource": {
        "resourceType": "Observation",
        "code": {
          "coding": [
            {
              "code": "97209-1",
              "display": "Shipment tracking number",
              "system": "http://loinc.org"
            }
          ]
        },
        "effectiveDateTime": "2025-01-29T10:37:26+00:00",
        "identifier": [
          {
            "assigner": {
              "identifier": {
                "system": "https://fhir.nhs.uk/Id/ods-organization-code",
                "value": "ODS"
              }
            },
            "system": "https://fhir.nwgenomics.nhs.uk/Id/ResourceIdentifier",
            "value": "ODS-1601737-97209-1-LN"
          }
        ],
        "performer": [
          {
            "identifier": {
              "system": "https://fhir.nhs.uk/Id/ods-organization-code",
              "value": "699X0"
            },
            "type": "Organization"
          }
        ],
        "status": "final",
        "subject": {
          "identifier": {
            "system": "https://fhir.nhs.uk/Id/nhs-number",
            "type": {
              "coding": [
                {
                  "code": "NH",
                  "system": "http://terminology.hl7.org/CodeSystem/v2-0203"
                }
              ]
            },
            "value": "9737383192"
          },
          "reference": "urn:uuid:3b206c5c-4816-4f9b-ab38-3590b9845d9a"
        },
        "valueString": "UK3096580215"
      }
    },
    {
      "fullUrl": "urn:uuid:b4e4a5eb-6f2e-4cc9-9000-9b22b5aaa57b",
      "resource": {
        "resourceType": "Observation",
        "code": {
          "coding": [
            {
              "code": "842009",
              "display": "Consanguinity",
              "system": "http://snomed.info/sct"
            }
          ]
        },
        "effectiveDateTime": "2025-01-29T10:37:26+00:00",
        "identifier": [
          {
            "assigner": {
              "identifier": {
                "system": "https://fhir.nhs.uk/Id/ods-organization-code",
                "value": "ODS"
              }
            },
            "system": "https://fhir.nwgenomics.nhs.uk/Id/ResourceIdentifier",
            "value": "ODS-1601737-842009-SNM3"
          }
        ],
        "performer": [
          {
            "identifier": {
              "system": "https://fhir.nhs.uk/Id/ods-organization-code",
              "value": "699X0"
            },
            "type": "Organization"
          }
        ],
        "status": "final",
        "subject": {
          "identifier": {
            "system": "https://fhir.nhs.uk/Id/nhs-number",
            "type": {
              "coding": [
                {
                  "code": "NH",
                  "system": "http://terminology.hl7.org/CodeSystem/v2-0203"
                }
              ]
            },
            "value": "9737383192"
          },
          "reference": "urn:uuid:3b206c5c-4816-4f9b-ab38-3590b9845d9a"
        },
        "valueCodeableConcept": {
          "coding": [
            {
              "code": "LA32-8",
              "display": "No"
            }
          ]
        }
      }
    },
    {
      "fullUrl": "urn:uuid:42814626-35ac-4d26-a29c-eb7e00915b54",
      "resource": {
        "resourceType": "Observation",
        "code": {
          "coding": [
            {
              "code": "161714006",
              "display": "Estimated date of delivery",
              "system": "http://snomed.info/sct"
            }
          ]
        },
        "effectiveDateTime": "2025-01-29T10:37:26+00:00",
        "identifier": [
          {
            "assigner": {
              "identifier": {
                "system": "https://fhir.nhs.uk/Id/ods-organization-code",
                "value": "ODS"
              }
            },
            "system": "https://fhir.nwgenomics.nhs.uk/Id/ResourceIdentifier",
            "value": "ODS-1601737-161714006-SNM3"
          }
        ],
        "performer": [
          {
            "identifier": {
              "system": "https://fhir.nhs.uk/Id/ods-organization-code",
              "value": "699X0"
            },
            "type": "Organization"
          }
        ],
        "status": "final",
        "subject": {
          "identifier": {
            "system": "https://fhir.nhs.uk/Id/nhs-number",
            "type": {
              "coding": [
                {
                  "code": "NH",
                  "system": "http://terminology.hl7.org/CodeSystem/v2-0203"
                }
              ]
            },
            "value": "9737383192"
          },
          "reference": "urn:uuid:3b206c5c-4816-4f9b-ab38-3590b9845d9a"
        },
        "valueDateTime": "2025-05-12T10:37:26+00:00"
      }
    },
    {
      "fullUrl": "urn:uuid:d994dbb5-6825-4499-b5b1-08aa0644d84d",
      "resource": {
        "resourceType": "Condition",
        "code": {
          "coding": [
            {
              "code": "363349007",
              "display": "Malignant tumour of stomach",
              "system": "http://snomed.info/sct"
            }
          ]
        },
        "onsetDateTime": "2025-01-29T10:37:26+00:00",
        "subject": {
          "identifier": {
            "system": "https://fhir.nhs.uk/Id/nhs-number",
            "type": {
              "coding": [
                {
                  "code": "NH",
                  "system": "http://terminology.hl7.org/CodeSystem/v2-0203"
                }
              ]
            },
            "value": "9737383192"
          },
          "reference": "urn:uuid:3b206c5c-4816-4f9b-ab38-3590b9845d9a"
        }
      }
    },
    {
      "fullUrl": "urn:uuid:2edf2dee-33bc-4a3f-ae80-cab8ba7da344",
      "resource": {
        "resourceType": "Specimen",
        "accessionIdentifier": {
          "assigner": {
            "identifier": {
              "system": "https://fhir.nhs.uk/Id/ods-organization-code",
              "value": "699X0"
            }
          },
          "system": "http://www.acme.org/servicerequest",
          "type": {
            "coding": [
              {
                "code": "FILL",
                "system": "http://terminology.hl7.org/CodeSystem/v2-0203"
              }
            ]
          },
          "value": "1001166717"
        },
        "collection": {
          "collectedDateTime": "2025-01-29T10:37:26+00:00"
        },
        "identifier": [
          {
            "assigner": {
              "identifier": {
                "system": "https://fhir.nhs.uk/Id/ods-organization-code",
                "value": "R0A"
              }
            },
            "system": "http://www.acme.org/servicerequest/identifier",
            "type": {
              "coding": [
                {
                  "code": "PLAC",
                  "system": "http://terminology.hl7.org/CodeSystem/v2-0203"
                }
              ]
            },
            "value": "25GEN-029GN00001"
          }
        ],
        "status": "available",
        "subject": {
          "identifier": {
            "system": "https://fhir.nhs.uk/Id/nhs-number",
            "type": {
              "coding": [
                {
                  "code": "NH",
                  "system": "http://terminology.hl7.org/CodeSystem/v2-0203"
                }
              ]
            },
            "value": "9737383192"
          },
          "reference": "urn:uuid:3b206c5c-4816-4f9b-ab38-3590b9845d9a"
        },
        "type": {
          "coding": [
            {
              "code": "258580003",
              "display": "Whole blood specimen",
              "system": "http://snomed.info/sct"
            }
          ]
        }
      }
    },
    {
      "fullUrl": "urn:uuid:75fc00c7-ba55-433e-8922-cc24229337ba",
      "resource": {
        "resourceType": "ServiceRequest",
        "authoredOn": "2025-01-29",
        "category": [
          {
            "coding": [
              {
                "code": "116148004",
                "system": "http://snomed.info/sct"
              }
            ]
          }
        ],
        "code": {
          "coding": [
            {
              "code": "R240.1",
              "system": "https://fhir.nhs.uk/CodeSystem/England-GenomicTestDirectory"
            }
          ]
        },
        "encounter": {
          "identifier": {
            "system": "https://nw-gmsa.github.io/Id/VN",
            "type": {
              "coding": [
                {
                  "code": "VN",
                  "system": "http://terminology.hl7.org/CodeSystem/v2-0203"
                }
              ]
            },
            "value": "1001166717"
          },
          "reference": "urn:uuid:d636da2b-5600-452d-a129-a4d1efeb3374"
        },
        "identifier": [
          {
            "assigner": {
              "identifier": {
                "system": "https://fhir.nhs.uk/Id/ods-organization-code",
                "value": "ODS"
              }
            },
            "system": "https://nw-gmsa.github.io/Id/PLAC",
            "type": {
              "coding": [
                {
                  "code": "PLAC",
                  "system": "http://terminology.hl7.org/CodeSystem/v2-0203"
                }
              ]
            },
            "value": "1601737"
          },
          {
            "assigner": {
              "identifier": {
                "system": "https://fhir.nhs.uk/Id/ods-organization-code",
                "value": "699X0"
              }
            },
            "system": "http://www.acme.org/servicerequest",
            "type": {
              "coding": [
                {
                  "code": "FILL",
                  "system": "http://terminology.hl7.org/CodeSystem/v2-0203"
                }
              ]
            },
            "value": "1001166717"
          }
        ],
        "intent": "order",
        "note": [
          {
            "text": "Referral lab PLEASE do following tests:\\n\\nTest(s) required: WGS\\nSample type: Blood\\nTransport used: Merlin Courier\\nTracking Number: ABC123\\nSample sent to: LWH Genetics\\nBy: PDAY on: 02/04/25\\n\\nSpeciality Requesting Clinician: PAEDS\\nTest Group: Neurology\\nEthnic Group: White British\\nPatient is from consanguineous union? : Unknown\\nSpecimen Collection Status: Collect & send with order\\nInfection Risk: No Specific Risk\\nClinical details:\\n\\nTESTING\\nContact/Bleep No: 123\\n"
          }
        ],
        "reasonCode": [
          {
            "coding": [
              {
                "code": "363349007",
                "display": "Malignant tumour of stomach",
                "system": "http://snomed.info/sct"
              }
            ]
          },
          {
            "coding": [
              {
                "code": "363349007",
                "display": "Malignant tumour of stomach",
                "system": "http://snomed.info/sct"
              }
            ]
          }
        ],
        "reasonReference": [
          {
            "reference": "urn:uuid:d994dbb5-6825-4499-b5b1-08aa0644d84d",
            "type": "Condition"
          }
        ],
        "requester": {
          "reference": "urn:uuid:87a45454-0c7b-4cbe-a430-5637d19db0aa"
        },
        "specimen": [
          {
            "reference": "urn:uuid:2edf2dee-33bc-4a3f-ae80-cab8ba7da344",
            "type": "Specimen"
          }
        ],
        "status": "active",
        "subject": {
          "identifier": {
            "system": "https://fhir.nhs.uk/Id/nhs-number",
            "type": {
              "coding": [
                {
                  "code": "NH",
                  "system": "http://terminology.hl7.org/CodeSystem/v2-0203"
                }
              ]
            },
            "value": "9737383192"
          },
          "reference": "urn:uuid:3b206c5c-4816-4f9b-ab38-3590b9845d9a"
        },
        "supportingInfo": [
          {
            "reference": "urn:uuid:f15463eb-305a-41b7-95f0-fb0b943d8c8e",
            "type": "Observation"
          },
          {
            "reference": "urn:uuid:0be7973a-c341-44f2-b7ef-33f896091665",
            "type": "Observation"
          },
          {
            "reference": "urn:uuid:3b038903-15d5-408b-bd52-1b6ed3e7c333",
            "type": "Observation"
          },
          {
            "reference": "urn:uuid:1f4dff16-b2d8-4a18-9eb3-af0a9629aa55",
            "type": "Observation"
          },
          {
            "reference": "urn:uuid:261c1f8f-15e2-4a28-a0a4-609544a6c38f",
            "type": "Observation"
          },
          {
            "reference": "urn:uuid:fdcce806-4188-4871-9adb-f2a0853c24ba",
            "type": "Observation"
          },
          {
            "reference": "urn:uuid:9957c3de-bb93-409d-afdb-1c4df4ebbb3e",
            "type": "Observation"
          },
          {
            "reference": "urn:uuid:ab063279-ce72-452b-8e8f-fd1cd9dd6bea",
            "type": "Observation"
          },
          {
            "reference": "urn:uuid:d7465107-b9ae-49b6-adb8-fdfb7adf5c41",
            "type": "Observation"
          },
          {
            "reference": "urn:uuid:6f92a028-089e-4b15-a128-aaa9e345206a",
            "type": "Observation"
          },
          {
            "reference": "urn:uuid:f1174995-2be3-4268-b070-e6f977a3e4ba",
            "type": "Observation"
          },
          {
            "reference": "urn:uuid:c09b35ee-9d64-4120-a510-f91eaa92ebbe",
            "type": "Observation"
          },
          {
            "reference": "urn:uuid:1b0917d5-2cf8-4f39-9082-6c460fef9bc8",
            "type": "Observation"
          },
          {
            "reference": "urn:uuid:b4e4a5eb-6f2e-4cc9-9000-9b22b5aaa57b",
            "type": "Observation"
          },
          {
            "reference": "urn:uuid:42814626-35ac-4d26-a29c-eb7e00915b54",
            "type": "Observation"
          }
        ]
      }
    }
  ],
  "identifier": {
    "value": "urn:uuid:9612365d-52a4-4fab-87e7-8a09d753f095"
  },
  "timestamp": "2024-10-13T10:33:00+00:00",
  "type": "message"
}