{
  "resourceType": "Bundle",
  "entry": [
    {
      "fullUrl": "urn:uuid:9ebbfef9-7192-4719-8b6e-d6b89861220e",
      "resource": {
        "resourceType": "MessageHeader",
        "destination": [
          {
            "endpoint": "https//fhir.mft.nhs.uk/Endpoint/LIMS",
            "receiver": {
              "identifier": {
                "system": "https://fhir.nhs.uk/Id/ods-organization-code",
                "value": "699X0"
              }
            }
          }
        ],
        "eventCoding": {
          "code": "O21",
          "system": "http://terminology.hl7.org/CodeSystem/v2-0003"
        },
        "focus": [
          {
            "reference": "urn:uuid:dc5580d1-1314-445e-8a9b-b5070e6da4de"
          }
        ],
        "sender": {
          "identifier": {
            "system": "https://fhir.nhs.uk/Id/ods-organization-code",
            "value": "R0A"
          }
        },
        "source": {
          "endpoint": "https://fhir.nwgenomics.nhs.uk/Endpoint/HIVE",
          "software": "NW GLH"
        }
      }
    },
    {
      "fullUrl": "urn:uuid:de542b4c-d0af-4524-8b17-8252fb84a9b4",
      "resource": {
        "resourceType": "Patient",
        "address": [
          {
            "postalCode": "M13 9PL"
          }
        ],
        "birthDate": "1972-09-21",
        "gender": "female",
        "identifier": [
          {
            "system": "https://fhir.nhs.uk/Id/nhs-number",
            "type": {
              "coding": [
                {
                  "code": "NH",
                  "system": "http://terminology.hl7.org/CodeSystem/v2-0203"
                }
              ]
            },
            "value": "9737383192"
          },
          {
            "assigner": {
              "identifier": {
                "system": "https://fhir.nhs.uk/Id/ods-organization-code",
                "value": "R0A"
              }
            },
            "system": "urn:oid:1.2.840.114350.1.13.611.3.7.5.737384.14",
            "type": {
              "coding": [
                {
                  "code": "MR",
                  "system": "http://terminology.hl7.org/CodeSystem/v2-0203"
                }
              ]
            },
            "value": "1234567"
          }
        ],
        "name": [
          {
            "family": "MANCHESTER",
            "given": [
              "SANSA"
            ]
          }
        ]
      }
    },
    {
      "fullUrl": "urn:uuid:441dca74-7ebe-4b66-8d46-6ef00f3e6c02",
      "resource": {
        "resourceType": "Encounter",
        "class": {
          "code": "OBSENC",
          "system": "http://terminology.hl7.org/CodeSystem/v3-ActCode"
        },
        "identifier": [
          {
            "assigner": {
              "identifier": {
                "system": "https://fhir.nhs.uk/Id/ods-organization-code",
                "value": "R0A"
              }
            },
            "type": {
              "coding": [
                {
                  "code": "VN",
                  "system": "http://terminology.hl7.org/CodeSystem/v2-0203"
                }
              ]
            },
            "value": "1001166717"
          }
        ],
        "status": "finished",
        "subject": {
          "identifier": {
            "system": "https://fhir.nhs.uk/Id/nhs-number",
            "type": {
              "coding": [
                {
                  "code": "NH",
                  "system": "http://terminology.hl7.org/CodeSystem/v2-0203"
                }
              ]
            },
            "value": "9737383192"
          },
          "reference": "urn:uuid:de542b4c-d0af-4524-8b17-8252fb84a9b4"
        }
      }
    },
    {
      "fullUrl": "urn:uuid:769aea7e-e0f3-4441-822b-7856116049c2",
      "resource": {
        "resourceType": "PractitionerRole",
        "practitioner": {
          "display": "Darwin, Samuel",
          "identifier": {
            "system": "https://fhir.hl7.org.uk/Id/gmc-number",
            "value": "C3456789"
          }
        }
      }
    },
    {
      "fullUrl": "urn:uuid:f8bf61e1-e231-46f6-9d68-b8539abc83cd",
      "resource": {
        "resourceType": "Observation",
        "code": {
          "coding": [
            {
              "code": "GENEAP",
              "display": "GENETICS TEST PERFORMABLE",
              "system": "https://fhir.nwgenomics.nhs.uk/CodeSystem/NWGMSA"
            }
          ]
        },
        "effectiveDateTime": "2025-01-29T10:37:26+00:00",
        "identifier": [
          {
            "assigner": {
              "identifier": {
                "system": "https://fhir.nhs.uk/Id/ods-organization-code",
                "value": "R0A"
              }
            },
            "system": "urn:oid:1.2.840.114350.1.13.861.1.7.2.798268",
            "type": {
              "coding": [
                {
                  "code": "PLAC",
                  "system": "http://terminology.hl7.org/CodeSystem/v2-0203"
                }
              ]
            },
            "value": "160171601"
          },
          {
            "assigner": {
              "identifier": {
                "system": "https://fhir.nhs.uk/Id/ods-organization-code",
                "value": "699X0"
              }
            },
            "system": "http://www.acme.org/servicerequest",
            "type": {
              "coding": [
                {
                  "code": "FILL",
                  "system": "http://terminology.hl7.org/CodeSystem/v2-0203"
                }
              ]
            },
            "value": "1001166717"
          }
        ],
        "performer": [
          {
            "identifier": {
              "system": "https://fhir.nhs.uk/Id/ods-organization-code",
              "value": "699X0"
            },
            "type": "Organization"
          }
        ],
        "status": "final",
        "subject": {
          "identifier": {
            "system": "https://fhir.nhs.uk/Id/nhs-number",
            "type": {
              "coding": [
                {
                  "code": "NH",
                  "system": "http://terminology.hl7.org/CodeSystem/v2-0203"
                }
              ]
            },
            "value": "9737383192"
          },
          "reference": "urn:uuid:de542b4c-d0af-4524-8b17-8252fb84a9b4"
        }
      }
    },
    {
      "fullUrl": "urn:uuid:8a59e94c-bc74-47be-9896-375e5d446033",
      "resource": {
        "resourceType": "Observation",
        "code": {
          "coding": [
            {
              "code": "230056",
              "display": "What Type of Referral Do You Require?",
              "system": "https://fhir.nwgenomics.nhs.uk/CodeSystem/NWGMSA"
            }
          ]
        },
        "effectiveDateTime": "2025-01-29T10:37:26+00:00",
        "identifier": [
          {
            "assigner": {
              "identifier": {
                "system": "https://fhir.nhs.uk/Id/ods-organization-code",
                "value": "R0A"
              }
            },
            "system": "urn:oid:1.2.840.114350.1.13.861.1.7.2.798268",
            "type": {
              "coding": [
                {
                  "code": "PLAC",
                  "system": "http://terminology.hl7.org/CodeSystem/v2-0203"
                }
              ]
            },
            "value": "160171601"
          },
          {
            "assigner": {
              "identifier": {
                "system": "https://fhir.nhs.uk/Id/ods-organization-code",
                "value": "699X0"
              }
            },
            "system": "http://www.acme.org/servicerequest",
            "type": {
              "coding": [
                {
                  "code": "FILL",
                  "system": "http://terminology.hl7.org/CodeSystem/v2-0203"
                }
              ]
            },
            "value": "1001166717"
          }
        ],
        "performer": [
          {
            "identifier": {
              "system": "https://fhir.nhs.uk/Id/ods-organization-code",
              "value": "699X0"
            },
            "type": "Organization"
          }
        ],
        "status": "final",
        "subject": {
          "identifier": {
            "system": "https://fhir.nhs.uk/Id/nhs-number",
            "type": {
              "coding": [
                {
                  "code": "NH",
                  "system": "http://terminology.hl7.org/CodeSystem/v2-0203"
                }
              ]
            },
            "value": "9737383192"
          },
          "reference": "urn:uuid:de542b4c-d0af-4524-8b17-8252fb84a9b4"
        },
        "valueCodeableConcept": {
          "coding": [
            {
              "code": "1186936003",
              "display": "Storage of specimen (procedure)"
            }
          ]
        }
      }
    },
    {
      "fullUrl": "urn:uuid:e00b5502-0452-4f28-be20-5ee0594f11a2",
      "resource": {
        "resourceType": "Observation",
        "code": {
          "coding": [
            {
              "code": "281269004",
              "display": "High infection risk sample",
              "system": "http://snomed.info/sct"
            }
          ]
        },
        "effectiveDateTime": "2025-01-29T10:37:26+00:00",
        "identifier": [
          {
            "assigner": {
              "identifier": {
                "system": "https://fhir.nhs.uk/Id/ods-organization-code",
                "value": "R0A"
              }
            },
            "system": "urn:oid:1.2.840.114350.1.13.861.1.7.2.798268",
            "type": {
              "coding": [
                {
                  "code": "PLAC",
                  "system": "http://terminology.hl7.org/CodeSystem/v2-0203"
                }
              ]
            },
            "value": "160171601"
          },
          {
            "assigner": {
              "identifier": {
                "system": "https://fhir.nhs.uk/Id/ods-organization-code",
                "value": "699X0"
              }
            },
            "system": "http://www.acme.org/servicerequest",
            "type": {
              "coding": [
                {
                  "code": "FILL",
                  "system": "http://terminology.hl7.org/CodeSystem/v2-0203"
                }
              ]
            },
            "value": "1001166717"
          }
        ],
        "performer": [
          {
            "identifier": {
              "system": "https://fhir.nhs.uk/Id/ods-organization-code",
              "value": "699X0"
            },
            "type": "Organization"
          }
        ],
        "status": "final",
        "subject": {
          "identifier": {
            "system": "https://fhir.nhs.uk/Id/nhs-number",
            "type": {
              "coding": [
                {
                  "code": "NH",
                  "system": "http://terminology.hl7.org/CodeSystem/v2-0203"
                }
              ]
            },
            "value": "9737383192"
          },
          "reference": "urn:uuid:de542b4c-d0af-4524-8b17-8252fb84a9b4"
        },
        "valueCodeableConcept": {
          "coding": [
            {
              "code": "LA32-8",
              "display": "No"
            }
          ]
        }
      }
    },
    {
      "fullUrl": "urn:uuid:475d2f29-262a-4cd5-b58e-4a193bce3595",
      "resource": {
        "resourceType": "Observation",
        "code": {
          "coding": [
            {
              "code": "230016",
              "display": "Test Type",
              "system": "https://fhir.nwgenomics.nhs.uk/CodeSystem/NWGMSA"
            }
          ]
        },
        "effectiveDateTime": "2025-01-29T10:37:26+00:00",
        "identifier": [
          {
            "assigner": {
              "identifier": {
                "system": "https://fhir.nhs.uk/Id/ods-organization-code",
                "value": "R0A"
              }
            },
            "system": "urn:oid:1.2.840.114350.1.13.861.1.7.2.798268",
            "type": {
              "coding": [
                {
                  "code": "PLAC",
                  "system": "http://terminology.hl7.org/CodeSystem/v2-0203"
                }
              ]
            },
            "value": "160171601"
          },
          {
            "assigner": {
              "identifier": {
                "system": "https://fhir.nhs.uk/Id/ods-organization-code",
                "value": "699X0"
              }
            },
            "system": "http://www.acme.org/servicerequest",
            "type": {
              "coding": [
                {
                  "code": "FILL",
                  "system": "http://terminology.hl7.org/CodeSystem/v2-0203"
                }
              ]
            },
            "value": "1001166717"
          }
        ],
        "performer": [
          {
            "identifier": {
              "system": "https://fhir.nhs.uk/Id/ods-organization-code",
              "value": "699X0"
            },
            "type": "Organization"
          }
        ],
        "status": "final",
        "subject": {
          "identifier": {
            "system": "https://fhir.nhs.uk/Id/nhs-number",
            "type": {
              "coding": [
                {
                  "code": "NH",
                  "system": "http://terminology.hl7.org/CodeSystem/v2-0203"
                }
              ]
            },
            "value": "9737383192"
          },
          "reference": "urn:uuid:de542b4c-d0af-4524-8b17-8252fb84a9b4"
        },
        "valueString": "Diagnostic Screen/Test"
      }
    },
    {
      "fullUrl": "urn:uuid:b2163844-2b61-4c73-b804-e7cb4ecec135",
      "resource": {
        "resourceType": "Observation",
        "code": {
          "coding": [
            {
              "code": "77386006",
              "display": "Pregnancy",
              "system": "http://snomed.info/sct"
            }
          ]
        },
        "effectiveDateTime": "2025-01-29T10:37:26+00:00",
        "identifier": [
          {
            "assigner": {
              "identifier": {
                "system": "https://fhir.nhs.uk/Id/ods-organization-code",
                "value": "R0A"
              }
            },
            "system": "urn:oid:1.2.840.114350.1.13.861.1.7.2.798268",
            "type": {
              "coding": [
                {
                  "code": "PLAC",
                  "system": "http://terminology.hl7.org/CodeSystem/v2-0203"
                }
              ]
            },
            "value": "160171601"
          },
          {
            "assigner": {
              "identifier": {
                "system": "https://fhir.nhs.uk/Id/ods-organization-code",
                "value": "699X0"
              }
            },
            "system": "http://www.acme.org/servicerequest",
            "type": {
              "coding": [
                {
                  "code": "FILL",
                  "system": "http://terminology.hl7.org/CodeSystem/v2-0203"
                }
              ]
            },
            "value": "1001166717"
          }
        ],
        "performer": [
          {
            "identifier": {
              "system": "https://fhir.nhs.uk/Id/ods-organization-code",
              "value": "699X0"
            },
            "type": "Organization"
          }
        ],
        "status": "final",
        "subject": {
          "identifier": {
            "system": "https://fhir.nhs.uk/Id/nhs-number",
            "type": {
              "coding": [
                {
                  "code": "NH",
                  "system": "http://terminology.hl7.org/CodeSystem/v2-0203"
                }
              ]
            },
            "value": "9737383192"
          },
          "reference": "urn:uuid:de542b4c-d0af-4524-8b17-8252fb84a9b4"
        },
        "valueCodeableConcept": {
          "coding": [
            {
              "code": "LA33-6",
              "display": "Yes"
            }
          ]
        }
      }
    },
    {
      "fullUrl": "urn:uuid:a0adaac9-ddc8-4b76-8cd0-aac9bef02d47",
      "resource": {
        "resourceType": "Observation",
        "code": {
          "coding": [
            {
              "code": "231284",
              "display": "Please Select R240 Test(s):",
              "system": "https://fhir.nwgenomics.nhs.uk/CodeSystem/NWGMSA"
            }
          ]
        },
        "effectiveDateTime": "2025-01-29T10:37:26+00:00",
        "identifier": [
          {
            "assigner": {
              "identifier": {
                "system": "https://fhir.nhs.uk/Id/ods-organization-code",
                "value": "R0A"
              }
            },
            "system": "urn:oid:1.2.840.114350.1.13.861.1.7.2.798268",
            "type": {
              "coding": [
                {
                  "code": "PLAC",
                  "system": "http://terminology.hl7.org/CodeSystem/v2-0203"
                }
              ]
            },
            "value": "160171601"
          },
          {
            "assigner": {
              "identifier": {
                "system": "https://fhir.nhs.uk/Id/ods-organization-code",
                "value": "699X0"
              }
            },
            "system": "http://www.acme.org/servicerequest",
            "type": {
              "coding": [
                {
                  "code": "FILL",
                  "system": "http://terminology.hl7.org/CodeSystem/v2-0203"
                }
              ]
            },
            "value": "1001166717"
          }
        ],
        "performer": [
          {
            "identifier": {
              "system": "https://fhir.nhs.uk/Id/ods-organization-code",
              "value": "699X0"
            },
            "type": "Organization"
          }
        ],
        "status": "final",
        "subject": {
          "identifier": {
            "system": "https://fhir.nhs.uk/Id/nhs-number",
            "type": {
              "coding": [
                {
                  "code": "NH",
                  "system": "http://terminology.hl7.org/CodeSystem/v2-0203"
                }
              ]
            },
            "value": "9737383192"
          },
          "reference": "urn:uuid:de542b4c-d0af-4524-8b17-8252fb84a9b4"
        },
        "valueString": "R240.1: Targeted variant testing"
      }
    },
    {
      "fullUrl": "urn:uuid:e2459654-f19a-42df-a665-76051791735c",
      "resource": {
        "resourceType": "Observation",
        "code": {
          "coding": [
            {
              "code": "231285",
              "display": "Please Select R242 Test(s):",
              "system": "https://fhir.nwgenomics.nhs.uk/CodeSystem/NWGMSA"
            }
          ]
        },
        "effectiveDateTime": "2025-01-29T10:37:26+00:00",
        "identifier": [
          {
            "assigner": {
              "identifier": {
                "system": "https://fhir.nhs.uk/Id/ods-organization-code",
                "value": "R0A"
              }
            },
            "system": "urn:oid:1.2.840.114350.1.13.861.1.7.2.798268",
            "type": {
              "coding": [
                {
                  "code": "PLAC",
                  "system": "http://terminology.hl7.org/CodeSystem/v2-0203"
                }
              ]
            },
            "value": "160171601"
          },
          {
            "assigner": {
              "identifier": {
                "system": "https://fhir.nhs.uk/Id/ods-organization-code",
                "value": "699X0"
              }
            },
            "system": "http://www.acme.org/servicerequest",
            "type": {
              "coding": [
                {
                  "code": "FILL",
                  "system": "http://terminology.hl7.org/CodeSystem/v2-0203"
                }
              ]
            },
            "value": "1001166717"
          }
        ],
        "performer": [
          {
            "identifier": {
              "system": "https://fhir.nhs.uk/Id/ods-organization-code",
              "value": "699X0"
            },
            "type": "Organization"
          }
        ],
        "status": "final",
        "subject": {
          "identifier": {
            "system": "https://fhir.nhs.uk/Id/nhs-number",
            "type": {
              "coding": [
                {
                  "code": "NH",
                  "system": "http://terminology.hl7.org/CodeSystem/v2-0203"
                }
              ]
            },
            "value": "9737383192"
          },
          "reference": "urn:uuid:de542b4c-d0af-4524-8b17-8252fb84a9b4"
        },
        "valueString": "R242.1: Targeted variant testing"
      }
    },
    {
      "fullUrl": "urn:uuid:81180402-b503-4c74-ad0e-682a8c63a86a",
      "resource": {
        "resourceType": "Observation",
        "code": {
          "coding": [
            {
              "code": "230027",
              "display": "Email Addresses of Non-MFT Clinicians for Result Reports",
              "system": "https://fhir.nwgenomics.nhs.uk/CodeSystem/NWGMSA"
            }
          ]
        },
        "effectiveDateTime": "2025-01-29T10:37:26+00:00",
        "identifier": [
          {
            "assigner": {
              "identifier": {
                "system": "https://fhir.nhs.uk/Id/ods-organization-code",
                "value": "R0A"
              }
            },
            "system": "urn:oid:1.2.840.114350.1.13.861.1.7.2.798268",
            "type": {
              "coding": [
                {
                  "code": "PLAC",
                  "system": "http://terminology.hl7.org/CodeSystem/v2-0203"
                }
              ]
            },
            "value": "160171601"
          },
          {
            "assigner": {
              "identifier": {
                "system": "https://fhir.nhs.uk/Id/ods-organization-code",
                "value": "699X0"
              }
            },
            "system": "http://www.acme.org/servicerequest",
            "type": {
              "coding": [
                {
                  "code": "FILL",
                  "system": "http://terminology.hl7.org/CodeSystem/v2-0203"
                }
              ]
            },
            "value": "1001166717"
          }
        ],
        "performer": [
          {
            "identifier": {
              "system": "https://fhir.nhs.uk/Id/ods-organization-code",
              "value": "699X0"
            },
            "type": "Organization"
          }
        ],
        "status": "final",
        "subject": {
          "identifier": {
            "system": "https://fhir.nhs.uk/Id/nhs-number",
            "type": {
              "coding": [
                {
                  "code": "NH",
                  "system": "http://terminology.hl7.org/CodeSystem/v2-0203"
                }
              ]
            },
            "value": "9737383192"
          },
          "reference": "urn:uuid:de542b4c-d0af-4524-8b17-8252fb84a9b4"
        },
        "valueString": "charu"
      }
    },
    {
      "fullUrl": "urn:uuid:10a12078-e149-4f62-ba7a-81b17425bf54",
      "resource": {
        "resourceType": "Observation",
        "code": {
          "coding": [
            {
              "code": "762911000000102",
              "display": "Informed consent given for treatment",
              "system": "http://snomed.info/sct"
            }
          ]
        },
        "effectiveDateTime": "2025-01-29T10:37:26+00:00",
        "identifier": [
          {
            "assigner": {
              "identifier": {
                "system": "https://fhir.nhs.uk/Id/ods-organization-code",
                "value": "R0A"
              }
            },
            "system": "urn:oid:1.2.840.114350.1.13.861.1.7.2.798268",
            "type": {
              "coding": [
                {
                  "code": "PLAC",
                  "system": "http://terminology.hl7.org/CodeSystem/v2-0203"
                }
              ]
            },
            "value": "160171601"
          },
          {
            "assigner": {
              "identifier": {
                "system": "https://fhir.nhs.uk/Id/ods-organization-code",
                "value": "699X0"
              }
            },
            "system": "http://www.acme.org/servicerequest",
            "type": {
              "coding": [
                {
                  "code": "FILL",
                  "system": "http://terminology.hl7.org/CodeSystem/v2-0203"
                }
              ]
            },
            "value": "1001166717"
          }
        ],
        "performer": [
          {
            "identifier": {
              "system": "https://fhir.nhs.uk/Id/ods-organization-code",
              "value": "699X0"
            },
            "type": "Organization"
          }
        ],
        "status": "final",
        "subject": {
          "identifier": {
            "system": "https://fhir.nhs.uk/Id/nhs-number",
            "type": {
              "coding": [
                {
                  "code": "NH",
                  "system": "http://terminology.hl7.org/CodeSystem/v2-0203"
                }
              ]
            },
            "value": "9737383192"
          },
          "reference": "urn:uuid:de542b4c-d0af-4524-8b17-8252fb84a9b4"
        },
        "valueCodeableConcept": {
          "coding": [
            {
              "code": "LA33-6",
              "display": "Yes"
            }
          ]
        }
      }
    },
    {
      "fullUrl": "urn:uuid:0743bb51-eb02-489b-b7db-958f62bcecfa",
      "resource": {
        "resourceType": "Observation",
        "code": {
          "coding": [
            {
              "code": "230037",
              "display": "Please Acknowledge That a DNA Sample Will be Stored in the Laboratory on Completion of Testing",
              "system": "https://fhir.nwgenomics.nhs.uk/CodeSystem/NWGMSA"
            }
          ]
        },
        "effectiveDateTime": "2025-01-29T10:37:26+00:00",
        "identifier": [
          {
            "assigner": {
              "identifier": {
                "system": "https://fhir.nhs.uk/Id/ods-organization-code",
                "value": "R0A"
              }
            },
            "system": "urn:oid:1.2.840.114350.1.13.861.1.7.2.798268",
            "type": {
              "coding": [
                {
                  "code": "PLAC",
                  "system": "http://terminology.hl7.org/CodeSystem/v2-0203"
                }
              ]
            },
            "value": "160171601"
          },
          {
            "assigner": {
              "identifier": {
                "system": "https://fhir.nhs.uk/Id/ods-organization-code",
                "value": "699X0"
              }
            },
            "system": "http://www.acme.org/servicerequest",
            "type": {
              "coding": [
                {
                  "code": "FILL",
                  "system": "http://terminology.hl7.org/CodeSystem/v2-0203"
                }
              ]
            },
            "value": "1001166717"
          }
        ],
        "performer": [
          {
            "identifier": {
              "system": "https://fhir.nhs.uk/Id/ods-organization-code",
              "value": "699X0"
            },
            "type": "Organization"
          }
        ],
        "status": "final",
        "subject": {
          "identifier": {
            "system": "https://fhir.nhs.uk/Id/nhs-number",
            "type": {
              "coding": [
                {
                  "code": "NH",
                  "system": "http://terminology.hl7.org/CodeSystem/v2-0203"
                }
              ]
            },
            "value": "9737383192"
          },
          "reference": "urn:uuid:de542b4c-d0af-4524-8b17-8252fb84a9b4"
        },
        "valueString": "Acknowledged"
      }
    },
    {
      "fullUrl": "urn:uuid:d24885d7-ac8c-46d8-84cf-cc7a74a84706",
      "resource": {
        "resourceType": "Observation",
        "code": {
          "coding": [
            {
              "code": "230039",
              "display": "Is the Person Ordering the Test the Referring Clinician",
              "system": "https://fhir.nwgenomics.nhs.uk/CodeSystem/NWGMSA"
            }
          ]
        },
        "effectiveDateTime": "2025-01-29T10:37:26+00:00",
        "identifier": [
          {
            "assigner": {
              "identifier": {
                "system": "https://fhir.nhs.uk/Id/ods-organization-code",
                "value": "R0A"
              }
            },
            "system": "urn:oid:1.2.840.114350.1.13.861.1.7.2.798268",
            "type": {
              "coding": [
                {
                  "code": "PLAC",
                  "system": "http://terminology.hl7.org/CodeSystem/v2-0203"
                }
              ]
            },
            "value": "160171601"
          },
          {
            "assigner": {
              "identifier": {
                "system": "https://fhir.nhs.uk/Id/ods-organization-code",
                "value": "699X0"
              }
            },
            "system": "http://www.acme.org/servicerequest",
            "type": {
              "coding": [
                {
                  "code": "FILL",
                  "system": "http://terminology.hl7.org/CodeSystem/v2-0203"
                }
              ]
            },
            "value": "1001166717"
          }
        ],
        "performer": [
          {
            "identifier": {
              "system": "https://fhir.nhs.uk/Id/ods-organization-code",
              "value": "699X0"
            },
            "type": "Organization"
          }
        ],
        "status": "final",
        "subject": {
          "identifier": {
            "system": "https://fhir.nhs.uk/Id/nhs-number",
            "type": {
              "coding": [
                {
                  "code": "NH",
                  "system": "http://terminology.hl7.org/CodeSystem/v2-0203"
                }
              ]
            },
            "value": "9737383192"
          },
          "reference": "urn:uuid:de542b4c-d0af-4524-8b17-8252fb84a9b4"
        },
        "valueString": "No"
      }
    },
    {
      "fullUrl": "urn:uuid:53e4abb2-7f0e-4df1-a15e-d07768d51507",
      "resource": {
        "resourceType": "Observation",
        "code": {
          "coding": [
            {
              "code": "unknown",
              "display": "Name of Supervising Clinician",
              "system": "https://fhir.nwgenomics.nhs.uk/CodeSystem/NWGMSA"
            }
          ]
        },
        "effectiveDateTime": "2025-01-29T10:37:26+00:00",
        "identifier": [
          {
            "assigner": {
              "identifier": {
                "system": "https://fhir.nhs.uk/Id/ods-organization-code",
                "value": "R0A"
              }
            },
            "system": "urn:oid:1.2.840.114350.1.13.861.1.7.2.798268",
            "type": {
              "coding": [
                {
                  "code": "PLAC",
                  "system": "http://terminology.hl7.org/CodeSystem/v2-0203"
                }
              ]
            },
            "value": "160171601"
          },
          {
            "assigner": {
              "identifier": {
                "system": "https://fhir.nhs.uk/Id/ods-organization-code",
                "value": "699X0"
              }
            },
            "system": "http://www.acme.org/servicerequest",
            "type": {
              "coding": [
                {
                  "code": "FILL",
                  "system": "http://terminology.hl7.org/CodeSystem/v2-0203"
                }
              ]
            },
            "value": "1001166717"
          }
        ],
        "performer": [
          {
            "identifier": {
              "system": "https://fhir.nhs.uk/Id/ods-organization-code",
              "value": "699X0"
            },
            "type": "Organization"
          }
        ],
        "status": "final",
        "subject": {
          "identifier": {
            "system": "https://fhir.nhs.uk/Id/nhs-number",
            "type": {
              "coding": [
                {
                  "code": "NH",
                  "system": "http://terminology.hl7.org/CodeSystem/v2-0203"
                }
              ]
            },
            "value": "9737383192"
          },
          "reference": "urn:uuid:de542b4c-d0af-4524-8b17-8252fb84a9b4"
        },
        "valueString": "DESHPANDE, CHARULATA"
      }
    },
    {
      "fullUrl": "urn:uuid:d7340ba3-1b00-4780-8144-a1a91b7d2bc3",
      "resource": {
        "resourceType": "Observation",
        "code": {
          "coding": [
            {
              "code": "97209-1",
              "display": "Shipment tracking number",
              "system": "http://loinc.org"
            }
          ]
        },
        "effectiveDateTime": "2025-01-29T10:37:26+00:00",
        "identifier": [
          {
            "assigner": {
              "identifier": {
                "system": "https://fhir.nhs.uk/Id/ods-organization-code",
                "value": "R0A"
              }
            },
            "system": "urn:oid:1.2.840.114350.1.13.861.1.7.2.798268",
            "type": {
              "coding": [
                {
                  "code": "PLAC",
                  "system": "http://terminology.hl7.org/CodeSystem/v2-0203"
                }
              ]
            },
            "value": "160171601"
          },
          {
            "assigner": {
              "identifier": {
                "system": "https://fhir.nhs.uk/Id/ods-organization-code",
                "value": "699X0"
              }
            },
            "system": "http://www.acme.org/servicerequest",
            "type": {
              "coding": [
                {
                  "code": "FILL",
                  "system": "http://terminology.hl7.org/CodeSystem/v2-0203"
                }
              ]
            },
            "value": "1001166717"
          }
        ],
        "performer": [
          {
            "identifier": {
              "system": "https://fhir.nhs.uk/Id/ods-organization-code",
              "value": "699X0"
            },
            "type": "Organization"
          }
        ],
        "status": "final",
        "subject": {
          "identifier": {
            "system": "https://fhir.nhs.uk/Id/nhs-number",
            "type": {
              "coding": [
                {
                  "code": "NH",
                  "system": "http://terminology.hl7.org/CodeSystem/v2-0203"
                }
              ]
            },
            "value": "9737383192"
          },
          "reference": "urn:uuid:de542b4c-d0af-4524-8b17-8252fb84a9b4"
        },
        "valueString": "UK3096580215"
      }
    },
    {
      "fullUrl": "urn:uuid:d8526ec0-c8c6-49ea-8b2d-e326f3e08383",
      "resource": {
        "resourceType": "Observation",
        "code": {
          "coding": [
            {
              "code": "842009",
              "display": "Consanguinity",
              "system": "http://snomed.info/sct"
            }
          ]
        },
        "effectiveDateTime": "2025-01-29T10:37:26+00:00",
        "identifier": [
          {
            "assigner": {
              "identifier": {
                "system": "https://fhir.nhs.uk/Id/ods-organization-code",
                "value": "R0A"
              }
            },
            "system": "urn:oid:1.2.840.114350.1.13.861.1.7.2.798268",
            "type": {
              "coding": [
                {
                  "code": "PLAC",
                  "system": "http://terminology.hl7.org/CodeSystem/v2-0203"
                }
              ]
            },
            "value": "160171601"
          },
          {
            "assigner": {
              "identifier": {
                "system": "https://fhir.nhs.uk/Id/ods-organization-code",
                "value": "699X0"
              }
            },
            "system": "http://www.acme.org/servicerequest",
            "type": {
              "coding": [
                {
                  "code": "FILL",
                  "system": "http://terminology.hl7.org/CodeSystem/v2-0203"
                }
              ]
            },
            "value": "1001166717"
          }
        ],
        "performer": [
          {
            "identifier": {
              "system": "https://fhir.nhs.uk/Id/ods-organization-code",
              "value": "699X0"
            },
            "type": "Organization"
          }
        ],
        "status": "final",
        "subject": {
          "identifier": {
            "system": "https://fhir.nhs.uk/Id/nhs-number",
            "type": {
              "coding": [
                {
                  "code": "NH",
                  "system": "http://terminology.hl7.org/CodeSystem/v2-0203"
                }
              ]
            },
            "value": "9737383192"
          },
          "reference": "urn:uuid:de542b4c-d0af-4524-8b17-8252fb84a9b4"
        },
        "valueCodeableConcept": {
          "coding": [
            {
              "code": "LA32-8",
              "display": "No"
            }
          ]
        }
      }
    },
    {
      "fullUrl": "urn:uuid:7dcff136-6a45-4f8a-a3be-4737db9870f2",
      "resource": {
        "resourceType": "Observation",
        "code": {
          "coding": [
            {
              "code": "161714006",
              "display": "Estimated date of delivery",
              "system": "http://snomed.info/sct"
            }
          ]
        },
        "effectiveDateTime": "2025-01-29T10:37:26+00:00",
        "identifier": [
          {
            "assigner": {
              "identifier": {
                "system": "https://fhir.nhs.uk/Id/ods-organization-code",
                "value": "R0A"
              }
            },
            "system": "urn:oid:1.2.840.114350.1.13.861.1.7.2.798268",
            "type": {
              "coding": [
                {
                  "code": "PLAC",
                  "system": "http://terminology.hl7.org/CodeSystem/v2-0203"
                }
              ]
            },
            "value": "160171601"
          },
          {
            "assigner": {
              "identifier": {
                "system": "https://fhir.nhs.uk/Id/ods-organization-code",
                "value": "699X0"
              }
            },
            "system": "http://www.acme.org/servicerequest",
            "type": {
              "coding": [
                {
                  "code": "FILL",
                  "system": "http://terminology.hl7.org/CodeSystem/v2-0203"
                }
              ]
            },
            "value": "1001166717"
          }
        ],
        "performer": [
          {
            "identifier": {
              "system": "https://fhir.nhs.uk/Id/ods-organization-code",
              "value": "699X0"
            },
            "type": "Organization"
          }
        ],
        "status": "final",
        "subject": {
          "identifier": {
            "system": "https://fhir.nhs.uk/Id/nhs-number",
            "type": {
              "coding": [
                {
                  "code": "NH",
                  "system": "http://terminology.hl7.org/CodeSystem/v2-0203"
                }
              ]
            },
            "value": "9737383192"
          },
          "reference": "urn:uuid:de542b4c-d0af-4524-8b17-8252fb84a9b4"
        },
        "valueDateTime": "2025-05-12T10:37:26+00:00"
      }
    },
    {
      "fullUrl": "urn:uuid:51ae3b28-0289-4451-b1d7-53ce4ec73110",
      "resource": {
        "resourceType": "Condition",
        "code": {
          "coding": [
            {
              "code": "363349007",
              "display": "Malignant tumour of stomach",
              "system": "http://snomed.info/sct"
            }
          ]
        },
        "onsetDateTime": "2025-01-29T10:37:26+00:00",
        "subject": {
          "identifier": {
            "system": "https://fhir.nhs.uk/Id/nhs-number",
            "type": {
              "coding": [
                {
                  "code": "NH",
                  "system": "http://terminology.hl7.org/CodeSystem/v2-0203"
                }
              ]
            },
            "value": "9737383192"
          },
          "reference": "urn:uuid:de542b4c-d0af-4524-8b17-8252fb84a9b4"
        }
      }
    },
    {
      "fullUrl": "urn:uuid:269cef01-a8c2-4e9a-a9ba-de5cf304e36a",
      "resource": {
        "resourceType": "Specimen",
        "accessionIdentifier": {
          "assigner": {
            "identifier": {
              "system": "https://fhir.nhs.uk/Id/ods-organization-code",
              "value": "699X0"
            }
          },
          "type": {
            "coding": [
              {
                "code": "ACSN",
                "system": "http://terminology.hl7.org/CodeSystem/v2-0203"
              }
            ]
          },
          "value": "1001166717"
        },
        "collection": {
          "collectedDateTime": "2025-01-29T10:37:26+00:00"
        },
        "identifier": [
          {
            "assigner": {
              "identifier": {
                "system": "https://fhir.nhs.uk/Id/ods-organization-code",
                "value": "R0A"
              }
            },
            "system": "urn:oid:1.2.840.114350.1.13.861.1.7.2.798268",
            "type": {
              "coding": [
                {
                  "code": "PLAC",
                  "system": "http://terminology.hl7.org/CodeSystem/v2-0203"
                }
              ]
            },
            "value": "25GEN-029GN00001"
          }
        ],
        "status": "available",
        "subject": {
          "identifier": {
            "system": "https://fhir.nhs.uk/Id/nhs-number",
            "type": {
              "coding": [
                {
                  "code": "NH",
                  "system": "http://terminology.hl7.org/CodeSystem/v2-0203"
                }
              ]
            },
            "value": "9737383192"
          },
          "reference": "urn:uuid:de542b4c-d0af-4524-8b17-8252fb84a9b4"
        },
        "type": {
          "coding": [
            {
              "code": "258580003",
              "display": "Whole blood specimen",
              "system": "http://snomed.info/sct"
            }
          ]
        }
      }
    },
    {
      "fullUrl": "urn:uuid:dc5580d1-1314-445e-8a9b-b5070e6da4de",
      "resource": {
        "resourceType": "ServiceRequest",
        "authoredOn": "2025-01-29",
        "category": [
          {
            "coding": [
              {
                "code": "116148004",
                "system": "http://snomed.info/sct"
              }
            ]
          }
        ],
        "code": {
          "coding": [
            {
              "code": "R240.1",
              "system": "https://fhir.nhs.uk/CodeSystem/England-GenomicTestDirectory"
            }
          ]
        },
        "encounter": {
          "identifier": {
            "assigner": {
              "identifier": {
                "system": "https://fhir.nhs.uk/Id/ods-organization-code",
                "value": "R0A"
              }
            },
            "type": {
              "coding": [
                {
                  "code": "VN",
                  "system": "http://terminology.hl7.org/CodeSystem/v2-0203"
                }
              ]
            },
            "value": "1001166717"
          },
          "reference": "urn:uuid:441dca74-7ebe-4b66-8d46-6ef00f3e6c02"
        },
        "identifier": [
          {
            "assigner": {
              "identifier": {
                "system": "https://fhir.nhs.uk/Id/ods-organization-code",
                "value": "R0A"
              }
            },
            "system": "urn:oid:1.2.840.114350.1.13.861.1.7.2.798268",
            "type": {
              "coding": [
                {
                  "code": "PLAC",
                  "system": "http://terminology.hl7.org/CodeSystem/v2-0203"
                }
              ]
            },
            "value": "160171601"
          },
          {
            "assigner": {
              "identifier": {
                "system": "https://fhir.nhs.uk/Id/ods-organization-code",
                "value": "699X0"
              }
            },
            "system": "http://www.acme.org/servicerequest",
            "type": {
              "coding": [
                {
                  "code": "FILL",
                  "system": "http://terminology.hl7.org/CodeSystem/v2-0203"
                }
              ]
            },
            "value": "1001166717"
          }
        ],
        "intent": "order",
        "note": [
          {
            "text": "Referral lab PLEASE do following tests:\\n\\nTest(s) required: WGS\\nSample type: Blood\\nTransport used: Merlin Courier\\nTracking Number: ABC123\\nSample sent to: LWH Genetics\\nBy: PDAY on: 02/04/25\\n\\nSpeciality Requesting Clinician: PAEDS\\nTest Group: Neurology\\nEthnic Group: White British\\nPatient is from consanguineous union? : Unknown\\nSpecimen Collection Status: Collect & send with order\\nInfection Risk: No Specific Risk\\nClinical details:\\n\\nTESTING\\nContact/Bleep No: 123\\n"
          }
        ],
        "reasonCode": [
          {
            "coding": [
              {
                "code": "363349007",
                "display": "Malignant tumour of stomach",
                "system": "http://snomed.info/sct"
              }
            ]
          },
          {
            "coding": [
              {
                "code": "363349007",
                "display": "Malignant tumour of stomach",
                "system": "http://snomed.info/sct"
              }
            ]
          }
        ],
        "reasonReference": [
          {
            "reference": "urn:uuid:51ae3b28-0289-4451-b1d7-53ce4ec73110",
            "type": "Condition"
          }
        ],
        "requester": {
          "reference": "urn:uuid:769aea7e-e0f3-4441-822b-7856116049c2"
        },
        "specimen": [
          {
            "reference": "urn:uuid:269cef01-a8c2-4e9a-a9ba-de5cf304e36a",
            "type": "Specimen"
          }
        ],
        "status": "active",
        "subject": {
          "identifier": {
            "system": "https://fhir.nhs.uk/Id/nhs-number",
            "type": {
              "coding": [
                {
                  "code": "NH",
                  "system": "http://terminology.hl7.org/CodeSystem/v2-0203"
                }
              ]
            },
            "value": "9737383192"
          },
          "reference": "urn:uuid:de542b4c-d0af-4524-8b17-8252fb84a9b4"
        },
        "supportingInfo": [
          {
            "reference": "urn:uuid:f8bf61e1-e231-46f6-9d68-b8539abc83cd",
            "type": "Observation"
          },
          {
            "reference": "urn:uuid:8a59e94c-bc74-47be-9896-375e5d446033",
            "type": "Observation"
          },
          {
            "reference": "urn:uuid:e00b5502-0452-4f28-be20-5ee0594f11a2",
            "type": "Observation"
          },
          {
            "reference": "urn:uuid:475d2f29-262a-4cd5-b58e-4a193bce3595",
            "type": "Observation"
          },
          {
            "reference": "urn:uuid:b2163844-2b61-4c73-b804-e7cb4ecec135",
            "type": "Observation"
          },
          {
            "reference": "urn:uuid:a0adaac9-ddc8-4b76-8cd0-aac9bef02d47",
            "type": "Observation"
          },
          {
            "reference": "urn:uuid:e2459654-f19a-42df-a665-76051791735c",
            "type": "Observation"
          },
          {
            "reference": "urn:uuid:81180402-b503-4c74-ad0e-682a8c63a86a",
            "type": "Observation"
          },
          {
            "reference": "urn:uuid:10a12078-e149-4f62-ba7a-81b17425bf54",
            "type": "Observation"
          },
          {
            "reference": "urn:uuid:0743bb51-eb02-489b-b7db-958f62bcecfa",
            "type": "Observation"
          },
          {
            "reference": "urn:uuid:d24885d7-ac8c-46d8-84cf-cc7a74a84706",
            "type": "Observation"
          },
          {
            "reference": "urn:uuid:53e4abb2-7f0e-4df1-a15e-d07768d51507",
            "type": "Observation"
          },
          {
            "reference": "urn:uuid:d7340ba3-1b00-4780-8144-a1a91b7d2bc3",
            "type": "Observation"
          },
          {
            "reference": "urn:uuid:d8526ec0-c8c6-49ea-8b2d-e326f3e08383",
            "type": "Observation"
          },
          {
            "reference": "urn:uuid:7dcff136-6a45-4f8a-a3be-4737db9870f2",
            "type": "Observation"
          }
        ]
      }
    }
  ],
  "identifier": {
    "value": "urn:uuid:9612365d-52a4-4fab-87e7-8a09d753f095"
  },
  "timestamp": "2024-10-13T10:33:00+00:00",
  "type": "message"
}