{
  "resourceType": "Bundle",
  "entry": [
    {
      "fullUrl": "urn:uuid:05b98056-d111-4388-92a6-97d08aa840f2",
      "resource": {
        "resourceType": "MessageHeader",
        "destination": [
          {
            "endpoint": "https//fhir.mft.nhs.uk/Endpoint/LIMS",
            "receiver": {
              "identifier": {
                "system": "https://fhir.nhs.uk/Id/ods-organization-code",
                "value": "RJZ"
              }
            }
          }
        ],
        "eventCoding": {
          "code": "O21",
          "system": "http://terminology.hl7.org/CodeSystem/v2-0003"
        },
        "focus": [
          {
            "reference": "urn:uuid:fabd4cd4-e68b-4182-810e-88e3c463c40f"
          }
        ],
        "sender": {
          "identifier": {
            "system": "https://fhir.nhs.uk/Id/ods-organization-code",
            "value": "RAX"
          }
        },
        "source": {
          "endpoint": "https://fhir.nwgenomics.nhs.uk/Endpoint/HIVE",
          "software": "NW GLH"
        }
      }
    },
    {
      "fullUrl": "urn:uuid:f695e49f-6966-4a43-9027-b002a4a80ca5",
      "resource": {
        "resourceType": "Patient",
        "address": [
          {
            "line": [
              "2 Barclay Close",
              "Fetcham"
            ],
            "postalCode": "SE1 2AA"
          }
        ],
        "birthDate": "1973-10-03",
        "gender": "female",
        "identifier": [
          {
            "system": "https://fhir.nhs.uk/Id/nhs-number",
            "type": {
              "coding": [
                {
                  "code": "NH",
                  "system": "http://terminology.hl7.org/CodeSystem/v2-0203"
                }
              ]
            },
            "value": "9737383230"
          },
          {
            "assigner": {
              "identifier": {
                "system": "https://fhir.nhs.uk/Id/ods-organization-code",
                "value": "RPY"
              }
            },
            "system": "urn:oid:1.2.840.114350.1.13.611.3.7.5.737384.14",
            "type": {
              "coding": [
                {
                  "code": "MR",
                  "system": "http://terminology.hl7.org/CodeSystem/v2-0203"
                }
              ]
            },
            "value": "1234567"
          }
        ],
        "name": [
          {
            "family": "London",
            "given": [
              "Cersei"
            ]
          }
        ]
      }
    },
    {
      "fullUrl": "urn:uuid:de313979-8ff6-40a7-afb5-9824bff81f98",
      "resource": {
        "resourceType": "Encounter",
        "class": {
          "code": "OBSENC",
          "system": "http://terminology.hl7.org/CodeSystem/v3-ActCode"
        },
        "identifier": [
          {
            "assigner": {
              "identifier": {
                "system": "https://fhir.nhs.uk/Id/ods-organization-code",
                "value": "RPY"
              }
            },
            "type": {
              "coding": [
                {
                  "code": "VN",
                  "system": "http://terminology.hl7.org/CodeSystem/v2-0203"
                }
              ]
            },
            "value": "1001166717"
          }
        ],
        "status": "finished",
        "subject": {
          "identifier": {
            "system": "https://fhir.nhs.uk/Id/nhs-number",
            "type": {
              "coding": [
                {
                  "code": "NH",
                  "system": "http://terminology.hl7.org/CodeSystem/v2-0203"
                }
              ]
            },
            "value": "9737383230"
          },
          "reference": "urn:uuid:f695e49f-6966-4a43-9027-b002a4a80ca5"
        }
      }
    },
    {
      "fullUrl": "urn:uuid:2456f65b-a5dd-46b1-b22b-836158fc447a",
      "resource": {
        "resourceType": "PractitionerRole",
        "practitioner": {
          "display": "Smith, Hazel",
          "identifier": {
            "value": "9999999998"
          }
        }
      }
    },
    {
      "fullUrl": "urn:uuid:a83009d7-8a62-4804-aac0-9a303b76db10",
      "resource": {
        "resourceType": "Observation",
        "code": {
          "coding": [
            {
              "code": "128462008",
              "display": "Metastatic malignant neoplasm (disorder)",
              "system": "http://snomed.info/sct"
            }
          ]
        },
        "effectiveDateTime": "2023-09-08",
        "identifier": [
          {
            "assigner": {
              "identifier": {
                "system": "https://fhir.nhs.uk/Id/ods-organization-code",
                "value": "RPY"
              }
            },
            "system": "urn:oid:1.2.840.114350.1.13.861.1.7.2.798268",
            "type": {
              "coding": [
                {
                  "code": "PLAC",
                  "system": "http://terminology.hl7.org/CodeSystem/v2-0203"
                }
              ]
            },
            "value": "160171601"
          }
        ],
        "performer": [
          {
            "identifier": {
              "system": "https://fhir.nhs.uk/Id/ods-organization-code",
              "value": "699X0"
            },
            "type": "Organization"
          }
        ],
        "status": "final",
        "subject": {
          "identifier": {
            "system": "https://fhir.nhs.uk/Id/nhs-number",
            "type": {
              "coding": [
                {
                  "code": "NH",
                  "system": "http://terminology.hl7.org/CodeSystem/v2-0203"
                }
              ]
            },
            "value": "9737383230"
          },
          "reference": "urn:uuid:f695e49f-6966-4a43-9027-b002a4a80ca5"
        }
      }
    },
    {
      "fullUrl": "urn:uuid:90952a02-6723-429b-991e-3840bbaf18e6",
      "resource": {
        "resourceType": "Observation",
        "code": {
          "coding": [
            {
              "code": "6574001",
              "display": "Necrosis (morphologic abnormality)",
              "system": "http://snomed.info/sct"
            }
          ]
        },
        "effectiveDateTime": "2023-09-08",
        "identifier": [
          {
            "assigner": {
              "identifier": {
                "system": "https://fhir.nhs.uk/Id/ods-organization-code",
                "value": "RPY"
              }
            },
            "system": "urn:oid:1.2.840.114350.1.13.861.1.7.2.798268",
            "type": {
              "coding": [
                {
                  "code": "PLAC",
                  "system": "http://terminology.hl7.org/CodeSystem/v2-0203"
                }
              ]
            },
            "value": "160171601"
          }
        ],
        "performer": [
          {
            "identifier": {
              "system": "https://fhir.nhs.uk/Id/ods-organization-code",
              "value": "699X0"
            },
            "type": "Organization"
          }
        ],
        "status": "final",
        "subject": {
          "identifier": {
            "system": "https://fhir.nhs.uk/Id/nhs-number",
            "type": {
              "coding": [
                {
                  "code": "NH",
                  "system": "http://terminology.hl7.org/CodeSystem/v2-0203"
                }
              ]
            },
            "value": "9737383230"
          },
          "reference": "urn:uuid:f695e49f-6966-4a43-9027-b002a4a80ca5"
        }
      }
    },
    {
      "fullUrl": "urn:uuid:44f15a91-118c-4a02-84d7-fd3099268dd0",
      "resource": {
        "resourceType": "Specimen",
        "collection": {
          "collectedDateTime": "2023-09-09T11:00:00+00:00"
        },
        "identifier": [
          {
            "type": {
              "coding": [
                {
                  "code": "PLAC",
                  "system": "http://terminology.hl7.org/CodeSystem/v2-0203"
                }
              ]
            },
            "value": "RA257630"
          }
        ],
        "status": "available",
        "subject": {
          "identifier": {
            "system": "https://fhir.nhs.uk/Id/nhs-number",
            "type": {
              "coding": [
                {
                  "code": "NH",
                  "system": "http://terminology.hl7.org/CodeSystem/v2-0203"
                }
              ]
            },
            "value": "9737383230"
          },
          "reference": "urn:uuid:f695e49f-6966-4a43-9027-b002a4a80ca5"
        },
        "type": {
          "coding": [
            {
              "code": "364611000000101",
              "display": "Tissue resection sample",
              "system": "http://snomed.info/sct"
            }
          ]
        }
      }
    },
    {
      "fullUrl": "urn:uuid:fabd4cd4-e68b-4182-810e-88e3c463c40f",
      "resource": {
        "resourceType": "ServiceRequest",
        "authoredOn": "2023-09-08",
        "category": [
          {
            "coding": [
              {
                "code": "116148004",
                "system": "http://snomed.info/sct"
              }
            ]
          }
        ],
        "code": {
          "coding": [
            {
              "code": "M119.5",
              "display": "Multi Target NGS Panel Small",
              "system": "https://fhir.nhs.uk/CodeSystem/England-GenomicTestDirectory"
            }
          ]
        },
        "encounter": {
          "identifier": {
            "assigner": {
              "identifier": {
                "system": "https://fhir.nhs.uk/Id/ods-organization-code",
                "value": "RPY"
              }
            },
            "type": {
              "coding": [
                {
                  "code": "VN",
                  "system": "http://terminology.hl7.org/CodeSystem/v2-0203"
                }
              ]
            },
            "value": "1001166717"
          },
          "reference": "urn:uuid:de313979-8ff6-40a7-afb5-9824bff81f98"
        },
        "identifier": [
          {
            "assigner": {
              "identifier": {
                "system": "https://fhir.nhs.uk/Id/ods-organization-code",
                "value": "RPY"
              }
            },
            "system": "urn:oid:1.2.840.114350.1.13.861.1.7.2.798268",
            "type": {
              "coding": [
                {
                  "code": "PLAC",
                  "system": "http://terminology.hl7.org/CodeSystem/v2-0203"
                }
              ]
            },
            "value": "160171601"
          }
        ],
        "intent": "order",
        "note": [
          {
            "text": "Free text for diagnosis/reason for referral, transplant, life status at time of request details/ e.g. malignant tumour - molecular assessment will aid management\\n"
          }
        ],
        "reasonCode": [
          {
            "coding": [
              {
                "code": "363358000",
                "display": "Malignant tumour of lung",
                "system": "http://snomed.info/sct"
              }
            ]
          },
          {
            "coding": [
              {
                "code": "relapse",
                "display": "Relapse",
                "system": "https://fhir.nhs.uk/CodeSystem/reasonfortesting-genomics"
              }
            ]
          }
        ],
        "requester": {
          "reference": "urn:uuid:2456f65b-a5dd-46b1-b22b-836158fc447a"
        },
        "specimen": [
          {
            "reference": "urn:uuid:44f15a91-118c-4a02-84d7-fd3099268dd0",
            "type": "Specimen"
          }
        ],
        "status": "active",
        "subject": {
          "identifier": {
            "system": "https://fhir.nhs.uk/Id/nhs-number",
            "type": {
              "coding": [
                {
                  "code": "NH",
                  "system": "http://terminology.hl7.org/CodeSystem/v2-0203"
                }
              ]
            },
            "value": "9737383230"
          },
          "reference": "urn:uuid:f695e49f-6966-4a43-9027-b002a4a80ca5"
        },
        "supportingInfo": [
          {
            "reference": "urn:uuid:a83009d7-8a62-4804-aac0-9a303b76db10",
            "type": "Observation"
          },
          {
            "reference": "urn:uuid:90952a02-6723-429b-991e-3840bbaf18e6",
            "type": "Observation"
          }
        ]
      }
    }
  ],
  "identifier": {
    "value": "156bb6ab-15e7-42f3-a819-ecd16a5b4fbd"
  },
  "timestamp": "2024-10-13T10:33:00+00:00",
  "type": "message"
}