{
  "resourceType": "Bundle",
  "entry": [
    {
      "fullUrl": "urn:uuid:64cdf9fa-3621-4308-97db-1ed70e255b3a",
      "resource": {
        "resourceType": "MessageHeader",
        "destination": [
          {
            "endpoint": "https//fhir.mft.nhs.uk/Endpoint/LIMS",
            "receiver": {
              "identifier": {
                "system": "https://fhir.nhs.uk/Id/ods-organization-code",
                "value": "RJZ"
              }
            }
          }
        ],
        "eventCoding": {
          "code": "O21",
          "system": "http://terminology.hl7.org/CodeSystem/v2-0003"
        },
        "focus": [
          {
            "reference": "urn:uuid:1845ccf0-7771-4d45-b84c-ea58a8367dee"
          }
        ],
        "sender": {
          "identifier": {
            "system": "https://fhir.nhs.uk/Id/ods-organization-code",
            "value": "RAX"
          }
        },
        "source": {
          "endpoint": "https://fhir.nwgenomics.nhs.uk/Endpoint/HIVE",
          "software": "NW GLH"
        }
      }
    },
    {
      "fullUrl": "urn:uuid:e4eb22fe-3dd5-4672-acb9-4f912563600b",
      "resource": {
        "resourceType": "Patient",
        "address": [
          {
            "line": [
              "2 Barclay Close",
              "Fetcham"
            ],
            "postalCode": "SE1 2AA"
          }
        ],
        "birthDate": "1973-10-03",
        "gender": "female",
        "identifier": [
          {
            "system": "https://fhir.nhs.uk/Id/nhs-number",
            "type": {
              "coding": [
                {
                  "code": "NH",
                  "system": "http://terminology.hl7.org/CodeSystem/v2-0203"
                }
              ]
            },
            "value": "9737383230"
          },
          {
            "assigner": {
              "identifier": {
                "system": "https://fhir.nhs.uk/Id/ods-organization-code",
                "value": "RPY"
              }
            },
            "system": "urn:oid:1.2.840.114350.1.13.611.3.7.5.737384.14",
            "type": {
              "coding": [
                {
                  "code": "MR",
                  "system": "http://terminology.hl7.org/CodeSystem/v2-0203"
                }
              ]
            },
            "value": "1234567"
          }
        ],
        "name": [
          {
            "family": "London",
            "given": [
              "Cersei"
            ]
          }
        ]
      }
    },
    {
      "fullUrl": "urn:uuid:2d8b53be-51b5-4fb8-ac76-8e76956d5454",
      "resource": {
        "resourceType": "Encounter",
        "class": {
          "code": "OBSENC",
          "system": "http://terminology.hl7.org/CodeSystem/v3-ActCode"
        },
        "identifier": [
          {
            "assigner": {
              "identifier": {
                "system": "https://fhir.nhs.uk/Id/ods-organization-code",
                "value": "RPY"
              }
            },
            "type": {
              "coding": [
                {
                  "code": "VN",
                  "system": "http://terminology.hl7.org/CodeSystem/v2-0203"
                }
              ]
            },
            "value": "1001166717"
          }
        ],
        "status": "finished",
        "subject": {
          "identifier": {
            "system": "https://fhir.nhs.uk/Id/nhs-number",
            "type": {
              "coding": [
                {
                  "code": "NH",
                  "system": "http://terminology.hl7.org/CodeSystem/v2-0203"
                }
              ]
            },
            "value": "9737383230"
          },
          "reference": "urn:uuid:e4eb22fe-3dd5-4672-acb9-4f912563600b"
        }
      }
    },
    {
      "fullUrl": "urn:uuid:56f5dd97-be9c-4564-9ea2-8e1bafc30857",
      "resource": {
        "resourceType": "PractitionerRole",
        "practitioner": {
          "display": "Smith, Hazel",
          "identifier": {
            "value": "9999999998"
          }
        }
      }
    },
    {
      "fullUrl": "urn:uuid:56842468-e8ce-4c74-ab85-e17f163a07b4",
      "resource": {
        "resourceType": "Observation",
        "code": {
          "coding": [
            {
              "code": "128462008",
              "display": "Metastatic malignant neoplasm (disorder)",
              "system": "http://snomed.info/sct"
            }
          ]
        },
        "effectiveDateTime": "2023-09-08",
        "identifier": [
          {
            "assigner": {
              "identifier": {
                "system": "https://fhir.nhs.uk/Id/ods-organization-code",
                "value": "RPY"
              }
            },
            "system": "urn:oid:1.2.840.114350.1.13.861.1.7.2.798268",
            "type": {
              "coding": [
                {
                  "code": "PLAC",
                  "system": "http://terminology.hl7.org/CodeSystem/v2-0203"
                }
              ]
            },
            "value": "160171601"
          }
        ],
        "performer": [
          {
            "identifier": {
              "system": "https://fhir.nhs.uk/Id/ods-organization-code",
              "value": "699X0"
            },
            "type": "Organization"
          }
        ],
        "status": "final",
        "subject": {
          "identifier": {
            "system": "https://fhir.nhs.uk/Id/nhs-number",
            "type": {
              "coding": [
                {
                  "code": "NH",
                  "system": "http://terminology.hl7.org/CodeSystem/v2-0203"
                }
              ]
            },
            "value": "9737383230"
          },
          "reference": "urn:uuid:e4eb22fe-3dd5-4672-acb9-4f912563600b"
        }
      }
    },
    {
      "fullUrl": "urn:uuid:9b1694a3-8c36-45b0-a2c6-c99f692be4e1",
      "resource": {
        "resourceType": "Observation",
        "code": {
          "coding": [
            {
              "code": "6574001",
              "display": "Necrosis (morphologic abnormality)",
              "system": "http://snomed.info/sct"
            }
          ]
        },
        "effectiveDateTime": "2023-09-08",
        "identifier": [
          {
            "assigner": {
              "identifier": {
                "system": "https://fhir.nhs.uk/Id/ods-organization-code",
                "value": "RPY"
              }
            },
            "system": "urn:oid:1.2.840.114350.1.13.861.1.7.2.798268",
            "type": {
              "coding": [
                {
                  "code": "PLAC",
                  "system": "http://terminology.hl7.org/CodeSystem/v2-0203"
                }
              ]
            },
            "value": "160171601"
          }
        ],
        "performer": [
          {
            "identifier": {
              "system": "https://fhir.nhs.uk/Id/ods-organization-code",
              "value": "699X0"
            },
            "type": "Organization"
          }
        ],
        "status": "final",
        "subject": {
          "identifier": {
            "system": "https://fhir.nhs.uk/Id/nhs-number",
            "type": {
              "coding": [
                {
                  "code": "NH",
                  "system": "http://terminology.hl7.org/CodeSystem/v2-0203"
                }
              ]
            },
            "value": "9737383230"
          },
          "reference": "urn:uuid:e4eb22fe-3dd5-4672-acb9-4f912563600b"
        }
      }
    },
    {
      "fullUrl": "urn:uuid:e9596080-7e88-4d1c-a7f4-b8efe394166d",
      "resource": {
        "resourceType": "Specimen",
        "collection": {
          "collectedDateTime": "2023-09-09T11:00:00+00:00"
        },
        "identifier": [
          {
            "type": {
              "coding": [
                {
                  "code": "PLAC",
                  "system": "http://terminology.hl7.org/CodeSystem/v2-0203"
                }
              ]
            },
            "value": "RA257630"
          }
        ],
        "status": "available",
        "subject": {
          "identifier": {
            "system": "https://fhir.nhs.uk/Id/nhs-number",
            "type": {
              "coding": [
                {
                  "code": "NH",
                  "system": "http://terminology.hl7.org/CodeSystem/v2-0203"
                }
              ]
            },
            "value": "9737383230"
          },
          "reference": "urn:uuid:e4eb22fe-3dd5-4672-acb9-4f912563600b"
        },
        "type": {
          "coding": [
            {
              "code": "364611000000101",
              "display": "Tissue resection sample",
              "system": "http://snomed.info/sct"
            }
          ]
        }
      }
    },
    {
      "fullUrl": "urn:uuid:1845ccf0-7771-4d45-b84c-ea58a8367dee",
      "resource": {
        "resourceType": "ServiceRequest",
        "authoredOn": "2023-09-08",
        "category": [
          {
            "coding": [
              {
                "code": "116148004",
                "system": "http://snomed.info/sct"
              }
            ]
          }
        ],
        "code": {
          "coding": [
            {
              "code": "M119.5",
              "display": "Multi Target NGS Panel Small",
              "system": "https://fhir.nhs.uk/CodeSystem/England-GenomicTestDirectory"
            }
          ]
        },
        "encounter": {
          "identifier": {
            "assigner": {
              "identifier": {
                "system": "https://fhir.nhs.uk/Id/ods-organization-code",
                "value": "RPY"
              }
            },
            "type": {
              "coding": [
                {
                  "code": "VN",
                  "system": "http://terminology.hl7.org/CodeSystem/v2-0203"
                }
              ]
            },
            "value": "1001166717"
          },
          "reference": "urn:uuid:2d8b53be-51b5-4fb8-ac76-8e76956d5454"
        },
        "identifier": [
          {
            "assigner": {
              "identifier": {
                "system": "https://fhir.nhs.uk/Id/ods-organization-code",
                "value": "RPY"
              }
            },
            "system": "urn:oid:1.2.840.114350.1.13.861.1.7.2.798268",
            "type": {
              "coding": [
                {
                  "code": "PLAC",
                  "system": "http://terminology.hl7.org/CodeSystem/v2-0203"
                }
              ]
            },
            "value": "160171601"
          }
        ],
        "intent": "order",
        "note": [
          {
            "text": "Free text for diagnosis/reason for referral, transplant, life status at time of request details/ e.g. malignant tumour - molecular assessment will aid management\\n"
          }
        ],
        "reasonCode": [
          {
            "coding": [
              {
                "code": "363358000",
                "display": "Malignant tumour of lung",
                "system": "http://snomed.info/sct"
              }
            ]
          },
          {
            "coding": [
              {
                "code": "relapse",
                "display": "Relapse",
                "system": "https://fhir.nhs.uk/CodeSystem/reasonfortesting-genomics"
              }
            ]
          }
        ],
        "requester": {
          "reference": "urn:uuid:56f5dd97-be9c-4564-9ea2-8e1bafc30857"
        },
        "specimen": [
          {
            "reference": "urn:uuid:e9596080-7e88-4d1c-a7f4-b8efe394166d",
            "type": "Specimen"
          }
        ],
        "status": "active",
        "subject": {
          "identifier": {
            "system": "https://fhir.nhs.uk/Id/nhs-number",
            "type": {
              "coding": [
                {
                  "code": "NH",
                  "system": "http://terminology.hl7.org/CodeSystem/v2-0203"
                }
              ]
            },
            "value": "9737383230"
          },
          "reference": "urn:uuid:e4eb22fe-3dd5-4672-acb9-4f912563600b"
        },
        "supportingInfo": [
          {
            "reference": "urn:uuid:56842468-e8ce-4c74-ab85-e17f163a07b4",
            "type": "Observation"
          },
          {
            "reference": "urn:uuid:9b1694a3-8c36-45b0-a2c6-c99f692be4e1",
            "type": "Observation"
          }
        ]
      }
    }
  ],
  "identifier": {
    "value": "156bb6ab-15e7-42f3-a819-ecd16a5b4fbd"
  },
  "timestamp": "2024-10-13T10:33:00+00:00",
  "type": "message"
}