{
  "resourceType": "Bundle",
  "entry": [
    {
      "fullUrl": "urn:uuid:a4fe1448-04b0-4b7d-b9ec-68522556580e",
      "resource": {
        "resourceType": "MessageHeader",
        "destination": [
          {
            "endpoint": "https//fhir.mft.nhs.uk/Endpoint/LIMS",
            "receiver": {
              "identifier": {
                "system": "https://fhir.nhs.uk/Id/ods-organization-code",
                "value": "RJZ"
              }
            }
          }
        ],
        "eventCoding": {
          "code": "O21",
          "system": "http://terminology.hl7.org/CodeSystem/v2-0003"
        },
        "focus": [
          {
            "reference": "urn:uuid:a4ac531e-3603-449c-a5ae-fdbb83f9f7a8"
          }
        ],
        "sender": {
          "identifier": {
            "system": "https://fhir.nhs.uk/Id/ods-organization-code",
            "value": "RAX"
          }
        },
        "source": {
          "endpoint": "https://fhir.nwgenomics.nhs.uk/Endpoint/HIVE",
          "software": "NW GLH"
        }
      }
    },
    {
      "fullUrl": "urn:uuid:900951b3-a572-48d1-b76a-929138ce67e0",
      "resource": {
        "resourceType": "Patient",
        "address": [
          {
            "line": [
              "2 Barclay Close",
              "Fetcham"
            ],
            "postalCode": "SE1 2AA"
          }
        ],
        "birthDate": "1973-10-03",
        "gender": "female",
        "identifier": [
          {
            "system": "https://fhir.nhs.uk/Id/nhs-number",
            "type": {
              "coding": [
                {
                  "code": "NH",
                  "system": "http://terminology.hl7.org/CodeSystem/v2-0203"
                }
              ]
            },
            "value": "9737383230"
          },
          {
            "assigner": {
              "identifier": {
                "system": "https://fhir.nhs.uk/Id/ods-organization-code",
                "value": "RPY"
              }
            },
            "system": "urn:oid:1.2.840.114350.1.13.611.3.7.5.737384.14",
            "type": {
              "coding": [
                {
                  "code": "MR",
                  "system": "http://terminology.hl7.org/CodeSystem/v2-0203"
                }
              ]
            },
            "value": "1234567"
          }
        ],
        "name": [
          {
            "family": "London",
            "given": [
              "Cersei"
            ]
          }
        ]
      }
    },
    {
      "fullUrl": "urn:uuid:6feea5bf-c027-4e92-ac6a-23275edf6df6",
      "resource": {
        "resourceType": "Encounter",
        "class": {
          "code": "OBSENC",
          "system": "http://terminology.hl7.org/CodeSystem/v3-ActCode"
        },
        "identifier": [
          {
            "assigner": {
              "identifier": {
                "system": "https://fhir.nhs.uk/Id/ods-organization-code",
                "value": "RPY"
              }
            },
            "type": {
              "coding": [
                {
                  "code": "VN",
                  "system": "http://terminology.hl7.org/CodeSystem/v2-0203"
                }
              ]
            },
            "value": "1001166717"
          }
        ],
        "status": "finished",
        "subject": {
          "identifier": {
            "system": "https://fhir.nhs.uk/Id/nhs-number",
            "type": {
              "coding": [
                {
                  "code": "NH",
                  "system": "http://terminology.hl7.org/CodeSystem/v2-0203"
                }
              ]
            },
            "value": "9737383230"
          },
          "reference": "urn:uuid:900951b3-a572-48d1-b76a-929138ce67e0"
        }
      }
    },
    {
      "fullUrl": "urn:uuid:716ea117-9a70-4405-ac29-93278482871e",
      "resource": {
        "resourceType": "PractitionerRole",
        "practitioner": {
          "display": "Smith, Hazel",
          "identifier": {
            "value": "9999999998"
          }
        }
      }
    },
    {
      "fullUrl": "urn:uuid:6e4d5db6-542e-4b7d-862e-c47e4a09b712",
      "resource": {
        "resourceType": "Observation",
        "code": {
          "coding": [
            {
              "code": "128462008",
              "display": "Metastatic malignant neoplasm (disorder)",
              "system": "http://snomed.info/sct"
            }
          ]
        },
        "effectiveDateTime": "2023-09-08",
        "identifier": [
          {
            "assigner": {
              "identifier": {
                "system": "https://fhir.nhs.uk/Id/ods-organization-code",
                "value": "RPY"
              }
            },
            "system": "urn:oid:1.2.840.114350.1.13.861.1.7.2.798268",
            "type": {
              "coding": [
                {
                  "code": "PLAC",
                  "system": "http://terminology.hl7.org/CodeSystem/v2-0203"
                }
              ]
            },
            "value": "160171601"
          }
        ],
        "performer": [
          {
            "identifier": {
              "system": "https://fhir.nhs.uk/Id/ods-organization-code",
              "value": "699X0"
            },
            "type": "Organization"
          }
        ],
        "status": "final",
        "subject": {
          "identifier": {
            "system": "https://fhir.nhs.uk/Id/nhs-number",
            "type": {
              "coding": [
                {
                  "code": "NH",
                  "system": "http://terminology.hl7.org/CodeSystem/v2-0203"
                }
              ]
            },
            "value": "9737383230"
          },
          "reference": "urn:uuid:900951b3-a572-48d1-b76a-929138ce67e0"
        }
      }
    },
    {
      "fullUrl": "urn:uuid:168b911c-3940-468a-b404-f65f2ee550ae",
      "resource": {
        "resourceType": "Observation",
        "code": {
          "coding": [
            {
              "code": "6574001",
              "display": "Necrosis (morphologic abnormality)",
              "system": "http://snomed.info/sct"
            }
          ]
        },
        "effectiveDateTime": "2023-09-08",
        "identifier": [
          {
            "assigner": {
              "identifier": {
                "system": "https://fhir.nhs.uk/Id/ods-organization-code",
                "value": "RPY"
              }
            },
            "system": "urn:oid:1.2.840.114350.1.13.861.1.7.2.798268",
            "type": {
              "coding": [
                {
                  "code": "PLAC",
                  "system": "http://terminology.hl7.org/CodeSystem/v2-0203"
                }
              ]
            },
            "value": "160171601"
          }
        ],
        "performer": [
          {
            "identifier": {
              "system": "https://fhir.nhs.uk/Id/ods-organization-code",
              "value": "699X0"
            },
            "type": "Organization"
          }
        ],
        "status": "final",
        "subject": {
          "identifier": {
            "system": "https://fhir.nhs.uk/Id/nhs-number",
            "type": {
              "coding": [
                {
                  "code": "NH",
                  "system": "http://terminology.hl7.org/CodeSystem/v2-0203"
                }
              ]
            },
            "value": "9737383230"
          },
          "reference": "urn:uuid:900951b3-a572-48d1-b76a-929138ce67e0"
        }
      }
    },
    {
      "fullUrl": "urn:uuid:04a9708c-eb9e-4167-959e-598ae61f373a",
      "resource": {
        "resourceType": "Specimen",
        "collection": {
          "collectedDateTime": "2023-09-09T11:00:00+00:00"
        },
        "identifier": [
          {
            "type": {
              "coding": [
                {
                  "code": "PLAC",
                  "system": "http://terminology.hl7.org/CodeSystem/v2-0203"
                }
              ]
            },
            "value": "RA257630"
          }
        ],
        "status": "available",
        "subject": {
          "identifier": {
            "system": "https://fhir.nhs.uk/Id/nhs-number",
            "type": {
              "coding": [
                {
                  "code": "NH",
                  "system": "http://terminology.hl7.org/CodeSystem/v2-0203"
                }
              ]
            },
            "value": "9737383230"
          },
          "reference": "urn:uuid:900951b3-a572-48d1-b76a-929138ce67e0"
        },
        "type": {
          "coding": [
            {
              "code": "364611000000101",
              "display": "Tissue resection sample",
              "system": "http://snomed.info/sct"
            }
          ]
        }
      }
    },
    {
      "fullUrl": "urn:uuid:a4ac531e-3603-449c-a5ae-fdbb83f9f7a8",
      "resource": {
        "resourceType": "ServiceRequest",
        "authoredOn": "2023-09-08",
        "category": [
          {
            "coding": [
              {
                "code": "116148004",
                "system": "http://snomed.info/sct"
              }
            ]
          }
        ],
        "code": {
          "coding": [
            {
              "code": "M119.5",
              "display": "Multi Target NGS Panel Small",
              "system": "https://fhir.nhs.uk/CodeSystem/England-GenomicTestDirectory"
            }
          ]
        },
        "encounter": {
          "identifier": {
            "assigner": {
              "identifier": {
                "system": "https://fhir.nhs.uk/Id/ods-organization-code",
                "value": "RPY"
              }
            },
            "type": {
              "coding": [
                {
                  "code": "VN",
                  "system": "http://terminology.hl7.org/CodeSystem/v2-0203"
                }
              ]
            },
            "value": "1001166717"
          },
          "reference": "urn:uuid:6feea5bf-c027-4e92-ac6a-23275edf6df6"
        },
        "identifier": [
          {
            "assigner": {
              "identifier": {
                "system": "https://fhir.nhs.uk/Id/ods-organization-code",
                "value": "RPY"
              }
            },
            "system": "urn:oid:1.2.840.114350.1.13.861.1.7.2.798268",
            "type": {
              "coding": [
                {
                  "code": "PLAC",
                  "system": "http://terminology.hl7.org/CodeSystem/v2-0203"
                }
              ]
            },
            "value": "160171601"
          }
        ],
        "intent": "order",
        "note": [
          {
            "text": "Free text for diagnosis/reason for referral, transplant, life status at time of request details/ e.g. malignant tumour - molecular assessment will aid management\\n"
          }
        ],
        "reasonCode": [
          {
            "coding": [
              {
                "code": "363358000",
                "display": "Malignant tumour of lung",
                "system": "http://snomed.info/sct"
              }
            ]
          },
          {
            "coding": [
              {
                "code": "relapse",
                "display": "Relapse",
                "system": "https://fhir.nhs.uk/CodeSystem/reasonfortesting-genomics"
              }
            ]
          }
        ],
        "requester": {
          "reference": "urn:uuid:716ea117-9a70-4405-ac29-93278482871e"
        },
        "specimen": [
          {
            "reference": "urn:uuid:04a9708c-eb9e-4167-959e-598ae61f373a",
            "type": "Specimen"
          }
        ],
        "status": "active",
        "subject": {
          "identifier": {
            "system": "https://fhir.nhs.uk/Id/nhs-number",
            "type": {
              "coding": [
                {
                  "code": "NH",
                  "system": "http://terminology.hl7.org/CodeSystem/v2-0203"
                }
              ]
            },
            "value": "9737383230"
          },
          "reference": "urn:uuid:900951b3-a572-48d1-b76a-929138ce67e0"
        },
        "supportingInfo": [
          {
            "reference": "urn:uuid:6e4d5db6-542e-4b7d-862e-c47e4a09b712",
            "type": "Observation"
          },
          {
            "reference": "urn:uuid:168b911c-3940-468a-b404-f65f2ee550ae",
            "type": "Observation"
          }
        ]
      }
    }
  ],
  "identifier": {
    "value": "156bb6ab-15e7-42f3-a819-ecd16a5b4fbd"
  },
  "timestamp": "2024-10-13T10:33:00+00:00",
  "type": "message"
}