{
  "resourceType": "Bundle",
  "entry": [
    {
      "fullUrl": "urn:uuid:ea6a4a5e-1890-4354-86ea-36443d59bd83",
      "resource": {
        "resourceType": "MessageHeader",
        "destination": [
          {
            "endpoint": "https//fhir.mft.nhs.uk/Endpoint/iGene",
            "receiver": {
              "identifier": {
                "system": "https://fhir.nhs.uk/Id/ods-organization-code",
                "value": "SMHGEN"
              }
            }
          }
        ],
        "eventCoding": {
          "code": "O21",
          "system": "http://terminology.hl7.org/CodeSystem/v2-0003"
        },
        "focus": [
          {
            "reference": "urn:uuid:da6eab28-ad6f-4de6-bbba-a4e2176a048a"
          },
          {
            "reference": "urn:uuid:3a611f97-9b5c-4873-bf2d-3a431c1652cb"
          }
        ],
        "sender": {
          "identifier": {
            "system": "https://fhir.nhs.uk/Id/ods-organization-code",
            "value": "MFT"
          }
        },
        "source": {
          "endpoint": "https://fhir.nwgenomics.nhs.uk/Endpoint/EpicBeaker",
          "software": "NW GLH"
        }
      }
    },
    {
      "fullUrl": "urn:uuid:6db292dc-65fc-457d-a89c-3cdc73ec2d1b",
      "resource": {
        "resourceType": "Patient",
        "address": [
          {
            "city": "ASCOT",
            "district": "\"\"",
            "line": [
              "12 HIGH STREET",
              "\"\""
            ],
            "postalCode": "SL5 7JX"
          }
        ],
        "birthDate": "1972-10-25",
        "gender": "male",
        "identifier": [
          {
            "system": "urn:oid:1.2.840.114350.1.13.611.3.7.5.737384.14",
            "type": {
              "coding": [
                {
                  "code": "MR",
                  "system": "http://terminology.hl7.org/CodeSystem/v2-0203"
                }
              ]
            },
            "value": "20003025"
          },
          {
            "assigner": {
              "identifier": {
                "system": "https://fhir.nhs.uk/Id/ods-organization-code",
                "value": "X24"
              }
            },
            "system": "https://fhir.nhs.uk/Id/nhs-number",
            "type": {
              "coding": [
                {
                  "code": "NH",
                  "system": "http://terminology.hl7.org/CodeSystem/v2-0203"
                }
              ]
            },
            "value": "7569773373"
          }
        ],
        "name": [
          {
            "family": "APPCLINDOC",
            "given": [
              "Tenc"
            ],
            "prefix": [
              "\"\""
            ]
          }
        ]
      }
    },
    {
      "fullUrl": "urn:uuid:60843831-7676-4a62-84a7-f5116a363798",
      "resource": {
        "resourceType": "PractitionerRole",
        "practitioner": {
          "display": "ONCOLOGY, PHYSICIAN",
          "identifier": {
            "system": "https://fhir.hl7.org.uk/Id/gmc-number",
            "value": "999"
          }
        }
      }
    },
    {
      "fullUrl": "urn:uuid:da6eab28-ad6f-4de6-bbba-a4e2176a048a",
      "resource": {
        "resourceType": "ServiceRequest",
        "authoredOn": "2026-02-11T11:10:58+00:00",
        "category": [
          {
            "coding": [
              {
                "code": "116148004",
                "system": "http://snomed.info/sct"
              }
            ]
          }
        ],
        "code": {
          "coding": [
            {
              "code": "R132.1",
              "system": "https://fhir.nhs.uk/CodeSystem/England-GenomicTestDirectory"
            }
          ]
        },
        "identifier": [
          {
            "assigner": {
              "identifier": {
                "system": "https://fhir.nhs.uk/Id/ods-organization-code",
                "value": "ROA"
              }
            },
            "system": "urn:oid:1.2.840.114350.1.13.861.1.7.2.798268",
            "type": {
              "coding": [
                {
                  "code": "PLAC",
                  "system": "http://terminology.hl7.org/CodeSystem/v2-0203"
                }
              ]
            },
            "value": "1000170505"
          }
        ],
        "intent": "order",
        "note": [
          {
            "text": "Wildcard inserted to engage the clinicians. Verify the impact to HL7 Message to iGene.\\n"
          }
        ],
        "requester": {
          "reference": "urn:uuid:60843831-7676-4a62-84a7-f5116a363798"
        },
        "status": "active",
        "subject": {
          "identifier": {
            "assigner": {
              "identifier": {
                "system": "https://fhir.nhs.uk/Id/ods-organization-code",
                "value": "X24"
              }
            },
            "system": "https://fhir.nhs.uk/Id/nhs-number",
            "type": {
              "coding": [
                {
                  "code": "NH",
                  "system": "http://terminology.hl7.org/CodeSystem/v2-0203"
                }
              ]
            },
            "value": "7569773373"
          },
          "reference": "urn:uuid:6db292dc-65fc-457d-a89c-3cdc73ec2d1b"
        }
      }
    },
    {
      "fullUrl": "urn:uuid:ff03209c-0d7f-4f86-90ba-6ab2c576d6de",
      "resource": {
        "resourceType": "Observation",
        "code": {
          "coding": [
            {
              "code": "230056",
              "display": "What Type of Referral Do You Require?",
              "system": "https://fhir.nwgenomics.nhs.uk/CodeSystem/MFTQuestionIds"
            }
          ]
        },
        "effectiveDateTime": "2026-02-11T11:10:59+00:00",
        "identifier": [
          {
            "assigner": {
              "identifier": {
                "system": "https://fhir.nhs.uk/Id/ods-organization-code",
                "value": "ROA"
              }
            },
            "system": "urn:oid:1.2.840.114350.1.13.861.1.7.2.798268",
            "type": {
              "coding": [
                {
                  "code": "PLAC",
                  "system": "http://terminology.hl7.org/CodeSystem/v2-0203"
                }
              ]
            },
            "value": "1000170505"
          }
        ],
        "performer": [
          {
            "identifier": {
              "system": "https://fhir.nhs.uk/Id/ods-organization-code",
              "value": "699X0"
            },
            "type": "Organization"
          }
        ],
        "status": "final",
        "subject": {
          "identifier": {
            "assigner": {
              "identifier": {
                "system": "https://fhir.nhs.uk/Id/ods-organization-code",
                "value": "X24"
              }
            },
            "system": "https://fhir.nhs.uk/Id/nhs-number",
            "type": {
              "coding": [
                {
                  "code": "NH",
                  "system": "http://terminology.hl7.org/CodeSystem/v2-0203"
                }
              ]
            },
            "value": "7569773373"
          },
          "reference": "urn:uuid:6db292dc-65fc-457d-a89c-3cdc73ec2d1b"
        },
        "valueString": "Standard"
      }
    },
    {
      "fullUrl": "urn:uuid:fe3c5cc8-e9a8-475a-9a97-935f96c327c5",
      "resource": {
        "resourceType": "Observation",
        "code": {
          "coding": [
            {
              "code": "230037",
              "display": "DNA Sample Will be Stored in the Laboratory on Completion of Testing",
              "system": "https://fhir.nwgenomics.nhs.uk/CodeSystem/MFTQuestionIds"
            }
          ]
        },
        "effectiveDateTime": "2026-02-11T11:10:59+00:00",
        "identifier": [
          {
            "assigner": {
              "identifier": {
                "system": "https://fhir.nhs.uk/Id/ods-organization-code",
                "value": "ROA"
              }
            },
            "system": "urn:oid:1.2.840.114350.1.13.861.1.7.2.798268",
            "type": {
              "coding": [
                {
                  "code": "PLAC",
                  "system": "http://terminology.hl7.org/CodeSystem/v2-0203"
                }
              ]
            },
            "value": "1000170505"
          }
        ],
        "performer": [
          {
            "identifier": {
              "system": "https://fhir.nhs.uk/Id/ods-organization-code",
              "value": "699X0"
            },
            "type": "Organization"
          }
        ],
        "status": "final",
        "subject": {
          "identifier": {
            "assigner": {
              "identifier": {
                "system": "https://fhir.nhs.uk/Id/ods-organization-code",
                "value": "X24"
              }
            },
            "system": "https://fhir.nhs.uk/Id/nhs-number",
            "type": {
              "coding": [
                {
                  "code": "NH",
                  "system": "http://terminology.hl7.org/CodeSystem/v2-0203"
                }
              ]
            },
            "value": "7569773373"
          },
          "reference": "urn:uuid:6db292dc-65fc-457d-a89c-3cdc73ec2d1b"
        },
        "valueString": "Please See Comments - *** DNA Storage"
      }
    },
    {
      "fullUrl": "urn:uuid:ae06a29b-bc0f-41d2-b8ab-752d2b845c6e",
      "resource": {
        "resourceType": "Observation",
        "code": {
          "coding": [
            {
              "code": "230048",
              "display": "Select Clinical Indication(s)",
              "system": "https://fhir.nwgenomics.nhs.uk/CodeSystem/MFTQuestionIds"
            }
          ]
        },
        "effectiveDateTime": "2026-02-11T11:10:59+00:00",
        "identifier": [
          {
            "assigner": {
              "identifier": {
                "system": "https://fhir.nhs.uk/Id/ods-organization-code",
                "value": "ROA"
              }
            },
            "system": "urn:oid:1.2.840.114350.1.13.861.1.7.2.798268",
            "type": {
              "coding": [
                {
                  "code": "PLAC",
                  "system": "http://terminology.hl7.org/CodeSystem/v2-0203"
                }
              ]
            },
            "value": "1000170505"
          }
        ],
        "performer": [
          {
            "identifier": {
              "system": "https://fhir.nhs.uk/Id/ods-organization-code",
              "value": "699X0"
            },
            "type": "Organization"
          }
        ],
        "status": "final",
        "subject": {
          "identifier": {
            "assigner": {
              "identifier": {
                "system": "https://fhir.nhs.uk/Id/ods-organization-code",
                "value": "X24"
              }
            },
            "system": "https://fhir.nhs.uk/Id/nhs-number",
            "type": {
              "coding": [
                {
                  "code": "NH",
                  "system": "http://terminology.hl7.org/CodeSystem/v2-0203"
                }
              ]
            },
            "value": "7569773373"
          },
          "reference": "urn:uuid:6db292dc-65fc-457d-a89c-3cdc73ec2d1b"
        },
        "valueString": "R132: Dilated and Arrhythmogenic cardiomyopathy"
      }
    },
    {
      "fullUrl": "urn:uuid:d4bc4de6-4912-4a56-8cba-060b675ff2bd",
      "resource": {
        "resourceType": "Observation",
        "code": {
          "text": "Unknown observation code"
        },
        "identifier": [
          {
            "assigner": {
              "identifier": {
                "system": "https://fhir.nhs.uk/Id/ods-organization-code",
                "value": "ROA"
              }
            },
            "system": "urn:oid:1.2.840.114350.1.13.861.1.7.2.798268",
            "type": {
              "coding": [
                {
                  "code": "PLAC",
                  "system": "http://terminology.hl7.org/CodeSystem/v2-0203"
                }
              ]
            },
            "value": "1000170505"
          }
        ],
        "performer": [
          {
            "identifier": {
              "system": "https://fhir.nhs.uk/Id/ods-organization-code",
              "value": "699X0"
            },
            "type": "Organization"
          }
        ],
        "status": "final",
        "subject": {
          "identifier": {
            "assigner": {
              "identifier": {
                "system": "https://fhir.nhs.uk/Id/ods-organization-code",
                "value": "X24"
              }
            },
            "system": "https://fhir.nhs.uk/Id/nhs-number",
            "type": {
              "coding": [
                {
                  "code": "NH",
                  "system": "http://terminology.hl7.org/CodeSystem/v2-0203"
                }
              ]
            },
            "value": "7569773373"
          },
          "reference": "urn:uuid:6db292dc-65fc-457d-a89c-3cdc73ec2d1b"
        }
      }
    },
    {
      "fullUrl": "urn:uuid:04cdf7d4-014a-40b9-8ba0-e31c11533f99",
      "resource": {
        "resourceType": "Observation",
        "code": {
          "coding": [
            {
              "code": "231610",
              "display": "Clinical Utility:",
              "system": "https://fhir.nwgenomics.nhs.uk/CodeSystem/MFTQuestionIds"
            }
          ]
        },
        "effectiveDateTime": "2026-02-11T11:10:59+00:00",
        "identifier": [
          {
            "assigner": {
              "identifier": {
                "system": "https://fhir.nhs.uk/Id/ods-organization-code",
                "value": "ROA"
              }
            },
            "system": "urn:oid:1.2.840.114350.1.13.861.1.7.2.798268",
            "type": {
              "coding": [
                {
                  "code": "PLAC",
                  "system": "http://terminology.hl7.org/CodeSystem/v2-0203"
                }
              ]
            },
            "value": "1000170505"
          }
        ],
        "performer": [
          {
            "identifier": {
              "system": "https://fhir.nhs.uk/Id/ods-organization-code",
              "value": "699X0"
            },
            "type": "Organization"
          }
        ],
        "status": "final",
        "subject": {
          "identifier": {
            "assigner": {
              "identifier": {
                "system": "https://fhir.nhs.uk/Id/ods-organization-code",
                "value": "X24"
              }
            },
            "system": "https://fhir.nhs.uk/Id/nhs-number",
            "type": {
              "coding": [
                {
                  "code": "NH",
                  "system": "http://terminology.hl7.org/CodeSystem/v2-0203"
                }
              ]
            },
            "value": "7569773373"
          },
          "reference": "urn:uuid:6db292dc-65fc-457d-a89c-3cdc73ec2d1b"
        },
        "valueString": "Patient management (determining therapeutic decisions and/or clinical investigations and/or surveillance programme)"
      }
    },
    {
      "fullUrl": "urn:uuid:9d41a08b-f647-4ddb-ae37-7b563360c62c",
      "resource": {
        "resourceType": "Observation",
        "code": {
          "coding": [
            {
              "code": "230019",
              "display": "High Infection Risk",
              "system": "https://fhir.nwgenomics.nhs.uk/CodeSystem/MFTQuestionIds"
            }
          ]
        },
        "effectiveDateTime": "2026-02-11T11:10:59+00:00",
        "identifier": [
          {
            "assigner": {
              "identifier": {
                "system": "https://fhir.nhs.uk/Id/ods-organization-code",
                "value": "ROA"
              }
            },
            "system": "urn:oid:1.2.840.114350.1.13.861.1.7.2.798268",
            "type": {
              "coding": [
                {
                  "code": "PLAC",
                  "system": "http://terminology.hl7.org/CodeSystem/v2-0203"
                }
              ]
            },
            "value": "1000170505"
          }
        ],
        "performer": [
          {
            "identifier": {
              "system": "https://fhir.nhs.uk/Id/ods-organization-code",
              "value": "699X0"
            },
            "type": "Organization"
          }
        ],
        "status": "final",
        "subject": {
          "identifier": {
            "assigner": {
              "identifier": {
                "system": "https://fhir.nhs.uk/Id/ods-organization-code",
                "value": "X24"
              }
            },
            "system": "https://fhir.nhs.uk/Id/nhs-number",
            "type": {
              "coding": [
                {
                  "code": "NH",
                  "system": "http://terminology.hl7.org/CodeSystem/v2-0203"
                }
              ]
            },
            "value": "7569773373"
          },
          "reference": "urn:uuid:6db292dc-65fc-457d-a89c-3cdc73ec2d1b"
        },
        "valueString": "No"
      }
    },
    {
      "fullUrl": "urn:uuid:8816ac77-ba2b-4739-aa13-5ee22ef39dd2",
      "resource": {
        "resourceType": "Observation",
        "code": {
          "coding": [
            {
              "code": "230034",
              "display": "Does This Test Relate to a Pregnancy",
              "system": "https://fhir.nwgenomics.nhs.uk/CodeSystem/MFTQuestionIds"
            }
          ]
        },
        "effectiveDateTime": "2026-02-11T11:10:59+00:00",
        "identifier": [
          {
            "assigner": {
              "identifier": {
                "system": "https://fhir.nhs.uk/Id/ods-organization-code",
                "value": "ROA"
              }
            },
            "system": "urn:oid:1.2.840.114350.1.13.861.1.7.2.798268",
            "type": {
              "coding": [
                {
                  "code": "PLAC",
                  "system": "http://terminology.hl7.org/CodeSystem/v2-0203"
                }
              ]
            },
            "value": "1000170505"
          }
        ],
        "performer": [
          {
            "identifier": {
              "system": "https://fhir.nhs.uk/Id/ods-organization-code",
              "value": "699X0"
            },
            "type": "Organization"
          }
        ],
        "status": "final",
        "subject": {
          "identifier": {
            "assigner": {
              "identifier": {
                "system": "https://fhir.nhs.uk/Id/ods-organization-code",
                "value": "X24"
              }
            },
            "system": "https://fhir.nhs.uk/Id/nhs-number",
            "type": {
              "coding": [
                {
                  "code": "NH",
                  "system": "http://terminology.hl7.org/CodeSystem/v2-0203"
                }
              ]
            },
            "value": "7569773373"
          },
          "reference": "urn:uuid:6db292dc-65fc-457d-a89c-3cdc73ec2d1b"
        },
        "valueString": "No"
      }
    },
    {
      "fullUrl": "urn:uuid:15af26a0-e3da-4930-b6c8-58e5dc773e91",
      "resource": {
        "resourceType": "Observation",
        "code": {
          "coding": [
            {
              "code": "230028",
              "display": "Date of Specimen(s) Collection",
              "system": "https://fhir.nwgenomics.nhs.uk/CodeSystem/MFTQuestionIds"
            }
          ]
        },
        "effectiveDateTime": "2026-02-11T11:10:59+00:00",
        "identifier": [
          {
            "assigner": {
              "identifier": {
                "system": "https://fhir.nhs.uk/Id/ods-organization-code",
                "value": "ROA"
              }
            },
            "system": "urn:oid:1.2.840.114350.1.13.861.1.7.2.798268",
            "type": {
              "coding": [
                {
                  "code": "PLAC",
                  "system": "http://terminology.hl7.org/CodeSystem/v2-0203"
                }
              ]
            },
            "value": "1000170505"
          }
        ],
        "performer": [
          {
            "identifier": {
              "system": "https://fhir.nhs.uk/Id/ods-organization-code",
              "value": "699X0"
            },
            "type": "Organization"
          }
        ],
        "status": "final",
        "subject": {
          "identifier": {
            "assigner": {
              "identifier": {
                "system": "https://fhir.nhs.uk/Id/ods-organization-code",
                "value": "X24"
              }
            },
            "system": "https://fhir.nhs.uk/Id/nhs-number",
            "type": {
              "coding": [
                {
                  "code": "NH",
                  "system": "http://terminology.hl7.org/CodeSystem/v2-0203"
                }
              ]
            },
            "value": "7569773373"
          },
          "reference": "urn:uuid:6db292dc-65fc-457d-a89c-3cdc73ec2d1b"
        },
        "valueDateTime": "2026-02-11"
      }
    },
    {
      "fullUrl": "urn:uuid:e000cc9e-ef75-4dd7-932d-4e7b9fd05f4d",
      "resource": {
        "resourceType": "Observation",
        "code": {
          "coding": [
            {
              "code": "230100",
              "display": "Please Note That An Additional Test Order Form 'Whole Genome Sequencing Rare Disease Order Form (Link at Top of Form)' is Required To Activate Testing. If This is Not Received, The DNA Will Be Extracted and Stored",
              "system": "https://fhir.nwgenomics.nhs.uk/CodeSystem/MFTQuestionIds"
            }
          ]
        },
        "effectiveDateTime": "2026-02-11T11:10:59+00:00",
        "identifier": [
          {
            "assigner": {
              "identifier": {
                "system": "https://fhir.nhs.uk/Id/ods-organization-code",
                "value": "ROA"
              }
            },
            "system": "urn:oid:1.2.840.114350.1.13.861.1.7.2.798268",
            "type": {
              "coding": [
                {
                  "code": "PLAC",
                  "system": "http://terminology.hl7.org/CodeSystem/v2-0203"
                }
              ]
            },
            "value": "1000170505"
          }
        ],
        "performer": [
          {
            "identifier": {
              "system": "https://fhir.nhs.uk/Id/ods-organization-code",
              "value": "699X0"
            },
            "type": "Organization"
          }
        ],
        "status": "final",
        "subject": {
          "identifier": {
            "assigner": {
              "identifier": {
                "system": "https://fhir.nhs.uk/Id/ods-organization-code",
                "value": "X24"
              }
            },
            "system": "https://fhir.nhs.uk/Id/nhs-number",
            "type": {
              "coding": [
                {
                  "code": "NH",
                  "system": "http://terminology.hl7.org/CodeSystem/v2-0203"
                }
              ]
            },
            "value": "7569773373"
          },
          "reference": "urn:uuid:6db292dc-65fc-457d-a89c-3cdc73ec2d1b"
        },
        "valueString": "Acknowledged"
      }
    },
    {
      "fullUrl": "urn:uuid:6f2d3685-fb54-401e-a85f-a3b13d531f6d",
      "resource": {
        "resourceType": "Observation",
        "code": {
          "coding": [
            {
              "code": "230027",
              "display": "Email Addresses of Non-MFT Clinicians for Result Reports",
              "system": "https://fhir.nwgenomics.nhs.uk/CodeSystem/MFTQuestionIds"
            }
          ]
        },
        "effectiveDateTime": "2026-02-11T11:10:59+00:00",
        "identifier": [
          {
            "assigner": {
              "identifier": {
                "system": "https://fhir.nhs.uk/Id/ods-organization-code",
                "value": "ROA"
              }
            },
            "system": "urn:oid:1.2.840.114350.1.13.861.1.7.2.798268",
            "type": {
              "coding": [
                {
                  "code": "PLAC",
                  "system": "http://terminology.hl7.org/CodeSystem/v2-0203"
                }
              ]
            },
            "value": "1000170505"
          }
        ],
        "performer": [
          {
            "identifier": {
              "system": "https://fhir.nhs.uk/Id/ods-organization-code",
              "value": "699X0"
            },
            "type": "Organization"
          }
        ],
        "status": "final",
        "subject": {
          "identifier": {
            "assigner": {
              "identifier": {
                "system": "https://fhir.nhs.uk/Id/ods-organization-code",
                "value": "X24"
              }
            },
            "system": "https://fhir.nhs.uk/Id/nhs-number",
            "type": {
              "coding": [
                {
                  "code": "NH",
                  "system": "http://terminology.hl7.org/CodeSystem/v2-0203"
                }
              ]
            },
            "value": "7569773373"
          },
          "reference": "urn:uuid:6db292dc-65fc-457d-a89c-3cdc73ec2d1b"
        },
        "valueString": "peter.volek@mft.nhs.uk"
      }
    },
    {
      "fullUrl": "urn:uuid:d05a4dd1-ae65-4839-99fa-d1523c2e473c",
      "resource": {
        "resourceType": "Observation",
        "code": {
          "coding": [
            {
              "code": "230029",
              "display": "Confirmation of Consent for Testing:",
              "system": "https://fhir.nwgenomics.nhs.uk/CodeSystem/MFTQuestionIds"
            }
          ]
        },
        "effectiveDateTime": "2026-02-11T11:10:59+00:00",
        "identifier": [
          {
            "assigner": {
              "identifier": {
                "system": "https://fhir.nhs.uk/Id/ods-organization-code",
                "value": "ROA"
              }
            },
            "system": "urn:oid:1.2.840.114350.1.13.861.1.7.2.798268",
            "type": {
              "coding": [
                {
                  "code": "PLAC",
                  "system": "http://terminology.hl7.org/CodeSystem/v2-0203"
                }
              ]
            },
            "value": "1000170505"
          }
        ],
        "performer": [
          {
            "identifier": {
              "system": "https://fhir.nhs.uk/Id/ods-organization-code",
              "value": "699X0"
            },
            "type": "Organization"
          }
        ],
        "status": "final",
        "subject": {
          "identifier": {
            "assigner": {
              "identifier": {
                "system": "https://fhir.nhs.uk/Id/ods-organization-code",
                "value": "X24"
              }
            },
            "system": "https://fhir.nhs.uk/Id/nhs-number",
            "type": {
              "coding": [
                {
                  "code": "NH",
                  "system": "http://terminology.hl7.org/CodeSystem/v2-0203"
                }
              ]
            },
            "value": "7569773373"
          },
          "reference": "urn:uuid:6db292dc-65fc-457d-a89c-3cdc73ec2d1b"
        },
        "valueString": "Completed Electronically on HIVE"
      }
    },
    {
      "fullUrl": "urn:uuid:fba52d30-fe04-4b6a-852d-d4a9d0c2e92b",
      "resource": {
        "resourceType": "Observation",
        "code": {
          "coding": [
            {
              "code": "230039",
              "display": "Are you the Patient’s Consultant?",
              "system": "https://fhir.nwgenomics.nhs.uk/CodeSystem/MFTQuestionIds"
            }
          ]
        },
        "effectiveDateTime": "2026-02-11T11:10:59+00:00",
        "identifier": [
          {
            "assigner": {
              "identifier": {
                "system": "https://fhir.nhs.uk/Id/ods-organization-code",
                "value": "ROA"
              }
            },
            "system": "urn:oid:1.2.840.114350.1.13.861.1.7.2.798268",
            "type": {
              "coding": [
                {
                  "code": "PLAC",
                  "system": "http://terminology.hl7.org/CodeSystem/v2-0203"
                }
              ]
            },
            "value": "1000170505"
          }
        ],
        "performer": [
          {
            "identifier": {
              "system": "https://fhir.nhs.uk/Id/ods-organization-code",
              "value": "699X0"
            },
            "type": "Organization"
          }
        ],
        "status": "final",
        "subject": {
          "identifier": {
            "assigner": {
              "identifier": {
                "system": "https://fhir.nhs.uk/Id/ods-organization-code",
                "value": "X24"
              }
            },
            "system": "https://fhir.nhs.uk/Id/nhs-number",
            "type": {
              "coding": [
                {
                  "code": "NH",
                  "system": "http://terminology.hl7.org/CodeSystem/v2-0203"
                }
              ]
            },
            "value": "7569773373"
          },
          "reference": "urn:uuid:6db292dc-65fc-457d-a89c-3cdc73ec2d1b"
        },
        "valueString": "No"
      }
    },
    {
      "fullUrl": "urn:uuid:cd433251-8613-4068-b5c6-559efb3b8467",
      "resource": {
        "resourceType": "Observation",
        "code": {
          "coding": [
            {
              "code": "230049",
              "display": "Name of Supervising Consultant",
              "system": "https://fhir.nwgenomics.nhs.uk/CodeSystem/MFTQuestionIds"
            }
          ]
        },
        "effectiveDateTime": "2026-02-11T11:10:59+00:00",
        "identifier": [
          {
            "assigner": {
              "identifier": {
                "system": "https://fhir.nhs.uk/Id/ods-organization-code",
                "value": "ROA"
              }
            },
            "system": "urn:oid:1.2.840.114350.1.13.861.1.7.2.798268",
            "type": {
              "coding": [
                {
                  "code": "PLAC",
                  "system": "http://terminology.hl7.org/CodeSystem/v2-0203"
                }
              ]
            },
            "value": "1000170505"
          }
        ],
        "performer": [
          {
            "identifier": {
              "system": "https://fhir.nhs.uk/Id/ods-organization-code",
              "value": "699X0"
            },
            "type": "Organization"
          }
        ],
        "status": "final",
        "subject": {
          "identifier": {
            "assigner": {
              "identifier": {
                "system": "https://fhir.nhs.uk/Id/ods-organization-code",
                "value": "X24"
              }
            },
            "system": "https://fhir.nhs.uk/Id/nhs-number",
            "type": {
              "coding": [
                {
                  "code": "NH",
                  "system": "http://terminology.hl7.org/CodeSystem/v2-0203"
                }
              ]
            },
            "value": "7569773373"
          },
          "reference": "urn:uuid:6db292dc-65fc-457d-a89c-3cdc73ec2d1b"
        },
        "valueString": "ONCOLOGY, PHYSICIAN"
      }
    },
    {
      "fullUrl": "urn:uuid:3169725a-a15c-4ba3-a743-59b8292abd85",
      "resource": {
        "resourceType": "Specimen",
        "status": "unavailable",
        "subject": {
          "identifier": {
            "assigner": {
              "identifier": {
                "system": "https://fhir.nhs.uk/Id/ods-organization-code",
                "value": "X24"
              }
            },
            "system": "https://fhir.nhs.uk/Id/nhs-number",
            "type": {
              "coding": [
                {
                  "code": "NH",
                  "system": "http://terminology.hl7.org/CodeSystem/v2-0203"
                }
              ]
            },
            "value": "7569773373"
          },
          "reference": "urn:uuid:6db292dc-65fc-457d-a89c-3cdc73ec2d1b"
        }
      }
    },
    {
      "fullUrl": "urn:uuid:3b7c4cf3-6b44-410d-aae2-e830e564f8fc",
      "resource": {
        "resourceType": "Specimen",
        "status": "unavailable",
        "subject": {
          "identifier": {
            "assigner": {
              "identifier": {
                "system": "https://fhir.nhs.uk/Id/ods-organization-code",
                "value": "X24"
              }
            },
            "system": "https://fhir.nhs.uk/Id/nhs-number",
            "type": {
              "coding": [
                {
                  "code": "NH",
                  "system": "http://terminology.hl7.org/CodeSystem/v2-0203"
                }
              ]
            },
            "value": "7569773373"
          },
          "reference": "urn:uuid:6db292dc-65fc-457d-a89c-3cdc73ec2d1b"
        }
      }
    },
    {
      "fullUrl": "urn:uuid:3a611f97-9b5c-4873-bf2d-3a431c1652cb",
      "resource": {
        "resourceType": "ServiceRequest",
        "authoredOn": "2026-02-11T11:10:58+00:00",
        "category": [
          {
            "coding": [
              {
                "code": "116148004",
                "system": "http://snomed.info/sct"
              }
            ]
          }
        ],
        "code": {
          "coding": [
            {
              "code": "R59.3",
              "system": "https://fhir.nhs.uk/CodeSystem/England-GenomicTestDirectory"
            }
          ]
        },
        "identifier": [
          {
            "assigner": {
              "identifier": {
                "system": "https://fhir.nhs.uk/Id/ods-organization-code",
                "value": "ROA"
              }
            },
            "system": "urn:oid:1.2.840.114350.1.13.861.1.7.2.798268",
            "type": {
              "coding": [
                {
                  "code": "PLAC",
                  "system": "http://terminology.hl7.org/CodeSystem/v2-0203"
                }
              ]
            },
            "value": "1000170505"
          }
        ],
        "intent": "order",
        "requester": {
          "reference": "urn:uuid:60843831-7676-4a62-84a7-f5116a363798"
        },
        "specimen": [
          {
            "reference": "urn:uuid:3169725a-a15c-4ba3-a743-59b8292abd85",
            "type": "Specimen"
          },
          {
            "reference": "urn:uuid:3b7c4cf3-6b44-410d-aae2-e830e564f8fc",
            "type": "Specimen"
          }
        ],
        "status": "active",
        "subject": {
          "identifier": {
            "assigner": {
              "identifier": {
                "system": "https://fhir.nhs.uk/Id/ods-organization-code",
                "value": "X24"
              }
            },
            "system": "https://fhir.nhs.uk/Id/nhs-number",
            "type": {
              "coding": [
                {
                  "code": "NH",
                  "system": "http://terminology.hl7.org/CodeSystem/v2-0203"
                }
              ]
            },
            "value": "7569773373"
          },
          "reference": "urn:uuid:6db292dc-65fc-457d-a89c-3cdc73ec2d1b"
        },
        "supportingInfo": [
          {
            "reference": "urn:uuid:ff03209c-0d7f-4f86-90ba-6ab2c576d6de",
            "type": "Observation"
          },
          {
            "reference": "urn:uuid:fe3c5cc8-e9a8-475a-9a97-935f96c327c5",
            "type": "Observation"
          },
          {
            "reference": "urn:uuid:ae06a29b-bc0f-41d2-b8ab-752d2b845c6e",
            "type": "Observation"
          },
          {
            "reference": "urn:uuid:d4bc4de6-4912-4a56-8cba-060b675ff2bd",
            "type": "Observation"
          },
          {
            "reference": "urn:uuid:04cdf7d4-014a-40b9-8ba0-e31c11533f99",
            "type": "Observation"
          },
          {
            "reference": "urn:uuid:9d41a08b-f647-4ddb-ae37-7b563360c62c",
            "type": "Observation"
          },
          {
            "reference": "urn:uuid:8816ac77-ba2b-4739-aa13-5ee22ef39dd2",
            "type": "Observation"
          },
          {
            "reference": "urn:uuid:15af26a0-e3da-4930-b6c8-58e5dc773e91",
            "type": "Observation"
          },
          {
            "reference": "urn:uuid:e000cc9e-ef75-4dd7-932d-4e7b9fd05f4d",
            "type": "Observation"
          },
          {
            "reference": "urn:uuid:6f2d3685-fb54-401e-a85f-a3b13d531f6d",
            "type": "Observation"
          },
          {
            "reference": "urn:uuid:d05a4dd1-ae65-4839-99fa-d1523c2e473c",
            "type": "Observation"
          },
          {
            "reference": "urn:uuid:fba52d30-fe04-4b6a-852d-d4a9d0c2e92b",
            "type": "Observation"
          },
          {
            "reference": "urn:uuid:cd433251-8613-4068-b5c6-559efb3b8467",
            "type": "Observation"
          }
        ]
      }
    }
  ],
  "identifier": {
    "value": "796088666"
  },
  "timestamp": "2026-02-11T11:11:02+00:00",
  "type": "message"
}