{
  "resourceType": "Bundle",
  "entry": [
    {
      "fullUrl": "urn:uuid:331abbe1-d3c6-4f0c-9a1a-138c59070b75",
      "resource": {
        "resourceType": "MessageHeader",
        "destination": [
          {
            "endpoint": "https//fhir.mft.nhs.uk/Endpoint/iGene",
            "receiver": {
              "identifier": {
                "system": "https://fhir.nhs.uk/Id/ods-organization-code",
                "value": "SMHGEN"
              }
            }
          }
        ],
        "eventCoding": {
          "code": "O21",
          "system": "http://terminology.hl7.org/CodeSystem/v2-0003"
        },
        "focus": [
          {
            "reference": "urn:uuid:8544906e-c0c3-45e5-954c-7765a40e2936"
          },
          {
            "reference": "urn:uuid:013dc9f5-76af-421d-a1bb-d4b0e3a879f0"
          }
        ],
        "sender": {
          "identifier": {
            "system": "https://fhir.nhs.uk/Id/ods-organization-code",
            "value": "MFT"
          }
        },
        "source": {
          "endpoint": "https://fhir.nwgenomics.nhs.uk/Endpoint/EpicBeaker",
          "software": "NW GLH"
        }
      }
    },
    {
      "fullUrl": "urn:uuid:56769038-eed0-4d20-abf0-68b996725c43",
      "resource": {
        "resourceType": "Patient",
        "address": [
          {
            "city": "ASCOT",
            "district": "\"\"",
            "line": [
              "12 HIGH STREET",
              "\"\""
            ],
            "postalCode": "SL5 7JX"
          }
        ],
        "birthDate": "1972-10-25",
        "gender": "male",
        "identifier": [
          {
            "system": "urn:oid:1.2.840.114350.1.13.611.3.7.5.737384.14",
            "type": {
              "coding": [
                {
                  "code": "MR",
                  "system": "http://terminology.hl7.org/CodeSystem/v2-0203"
                }
              ]
            },
            "value": "20003025"
          },
          {
            "assigner": {
              "identifier": {
                "system": "https://fhir.nhs.uk/Id/ods-organization-code",
                "value": "X24"
              }
            },
            "system": "https://fhir.nhs.uk/Id/nhs-number",
            "type": {
              "coding": [
                {
                  "code": "NH",
                  "system": "http://terminology.hl7.org/CodeSystem/v2-0203"
                }
              ]
            },
            "value": "7569773373"
          }
        ],
        "name": [
          {
            "family": "APPCLINDOC",
            "given": [
              "Tenc"
            ],
            "prefix": [
              "\"\""
            ]
          }
        ]
      }
    },
    {
      "fullUrl": "urn:uuid:9f518f1d-b492-401a-8b03-56db69f8d95f",
      "resource": {
        "resourceType": "PractitionerRole",
        "practitioner": {
          "display": "ONCOLOGY, PHYSICIAN",
          "identifier": {
            "system": "https://fhir.hl7.org.uk/Id/gmc-number",
            "value": "999"
          }
        }
      }
    },
    {
      "fullUrl": "urn:uuid:8544906e-c0c3-45e5-954c-7765a40e2936",
      "resource": {
        "resourceType": "ServiceRequest",
        "authoredOn": "2026-02-11T11:10:58+00:00",
        "category": [
          {
            "coding": [
              {
                "code": "116148004",
                "system": "http://snomed.info/sct"
              }
            ]
          }
        ],
        "code": {
          "coding": [
            {
              "code": "R132.1",
              "system": "https://fhir.nhs.uk/CodeSystem/England-GenomicTestDirectory"
            }
          ]
        },
        "identifier": [
          {
            "assigner": {
              "identifier": {
                "system": "https://fhir.nhs.uk/Id/ods-organization-code",
                "value": "ROA"
              }
            },
            "system": "urn:oid:1.2.840.114350.1.13.861.1.7.2.798268",
            "type": {
              "coding": [
                {
                  "code": "PLAC",
                  "system": "http://terminology.hl7.org/CodeSystem/v2-0203"
                }
              ]
            },
            "value": "1000170505"
          }
        ],
        "intent": "order",
        "note": [
          {
            "text": "Wildcard inserted to engage the clinicians. Verify the impact to HL7 Message to iGene.\\n"
          }
        ],
        "requester": {
          "reference": "urn:uuid:9f518f1d-b492-401a-8b03-56db69f8d95f"
        },
        "status": "active",
        "subject": {
          "identifier": {
            "assigner": {
              "identifier": {
                "system": "https://fhir.nhs.uk/Id/ods-organization-code",
                "value": "X24"
              }
            },
            "system": "https://fhir.nhs.uk/Id/nhs-number",
            "type": {
              "coding": [
                {
                  "code": "NH",
                  "system": "http://terminology.hl7.org/CodeSystem/v2-0203"
                }
              ]
            },
            "value": "7569773373"
          },
          "reference": "urn:uuid:56769038-eed0-4d20-abf0-68b996725c43"
        }
      }
    },
    {
      "fullUrl": "urn:uuid:5963ae74-c72a-4205-b032-90b414c60915",
      "resource": {
        "resourceType": "Observation",
        "code": {
          "coding": [
            {
              "code": "230056",
              "display": "What Type of Referral Do You Require?",
              "system": "https://fhir.nwgenomics.nhs.uk/CodeSystem/MFTQuestionIds"
            }
          ]
        },
        "effectiveDateTime": "2026-02-11T11:10:59+00:00",
        "identifier": [
          {
            "assigner": {
              "identifier": {
                "system": "https://fhir.nhs.uk/Id/ods-organization-code",
                "value": "ROA"
              }
            },
            "system": "urn:oid:1.2.840.114350.1.13.861.1.7.2.798268",
            "type": {
              "coding": [
                {
                  "code": "PLAC",
                  "system": "http://terminology.hl7.org/CodeSystem/v2-0203"
                }
              ]
            },
            "value": "1000170505"
          }
        ],
        "performer": [
          {
            "identifier": {
              "system": "https://fhir.nhs.uk/Id/ods-organization-code",
              "value": "699X0"
            },
            "type": "Organization"
          }
        ],
        "status": "final",
        "subject": {
          "identifier": {
            "assigner": {
              "identifier": {
                "system": "https://fhir.nhs.uk/Id/ods-organization-code",
                "value": "X24"
              }
            },
            "system": "https://fhir.nhs.uk/Id/nhs-number",
            "type": {
              "coding": [
                {
                  "code": "NH",
                  "system": "http://terminology.hl7.org/CodeSystem/v2-0203"
                }
              ]
            },
            "value": "7569773373"
          },
          "reference": "urn:uuid:56769038-eed0-4d20-abf0-68b996725c43"
        },
        "valueString": "Standard"
      }
    },
    {
      "fullUrl": "urn:uuid:104bf0c9-48e7-4504-a733-a69a701ab65f",
      "resource": {
        "resourceType": "Observation",
        "code": {
          "coding": [
            {
              "code": "230037",
              "display": "DNA Sample Will be Stored in the Laboratory on Completion of Testing",
              "system": "https://fhir.nwgenomics.nhs.uk/CodeSystem/MFTQuestionIds"
            }
          ]
        },
        "effectiveDateTime": "2026-02-11T11:10:59+00:00",
        "identifier": [
          {
            "assigner": {
              "identifier": {
                "system": "https://fhir.nhs.uk/Id/ods-organization-code",
                "value": "ROA"
              }
            },
            "system": "urn:oid:1.2.840.114350.1.13.861.1.7.2.798268",
            "type": {
              "coding": [
                {
                  "code": "PLAC",
                  "system": "http://terminology.hl7.org/CodeSystem/v2-0203"
                }
              ]
            },
            "value": "1000170505"
          }
        ],
        "performer": [
          {
            "identifier": {
              "system": "https://fhir.nhs.uk/Id/ods-organization-code",
              "value": "699X0"
            },
            "type": "Organization"
          }
        ],
        "status": "final",
        "subject": {
          "identifier": {
            "assigner": {
              "identifier": {
                "system": "https://fhir.nhs.uk/Id/ods-organization-code",
                "value": "X24"
              }
            },
            "system": "https://fhir.nhs.uk/Id/nhs-number",
            "type": {
              "coding": [
                {
                  "code": "NH",
                  "system": "http://terminology.hl7.org/CodeSystem/v2-0203"
                }
              ]
            },
            "value": "7569773373"
          },
          "reference": "urn:uuid:56769038-eed0-4d20-abf0-68b996725c43"
        },
        "valueString": "Please See Comments - *** DNA Storage"
      }
    },
    {
      "fullUrl": "urn:uuid:dde5487e-b0c0-4f90-bbd6-5ec24bd246f1",
      "resource": {
        "resourceType": "Observation",
        "code": {
          "coding": [
            {
              "code": "230048",
              "display": "Select Clinical Indication(s)",
              "system": "https://fhir.nwgenomics.nhs.uk/CodeSystem/MFTQuestionIds"
            }
          ]
        },
        "effectiveDateTime": "2026-02-11T11:10:59+00:00",
        "identifier": [
          {
            "assigner": {
              "identifier": {
                "system": "https://fhir.nhs.uk/Id/ods-organization-code",
                "value": "ROA"
              }
            },
            "system": "urn:oid:1.2.840.114350.1.13.861.1.7.2.798268",
            "type": {
              "coding": [
                {
                  "code": "PLAC",
                  "system": "http://terminology.hl7.org/CodeSystem/v2-0203"
                }
              ]
            },
            "value": "1000170505"
          }
        ],
        "performer": [
          {
            "identifier": {
              "system": "https://fhir.nhs.uk/Id/ods-organization-code",
              "value": "699X0"
            },
            "type": "Organization"
          }
        ],
        "status": "final",
        "subject": {
          "identifier": {
            "assigner": {
              "identifier": {
                "system": "https://fhir.nhs.uk/Id/ods-organization-code",
                "value": "X24"
              }
            },
            "system": "https://fhir.nhs.uk/Id/nhs-number",
            "type": {
              "coding": [
                {
                  "code": "NH",
                  "system": "http://terminology.hl7.org/CodeSystem/v2-0203"
                }
              ]
            },
            "value": "7569773373"
          },
          "reference": "urn:uuid:56769038-eed0-4d20-abf0-68b996725c43"
        },
        "valueString": "R132: Dilated and Arrhythmogenic cardiomyopathy"
      }
    },
    {
      "fullUrl": "urn:uuid:d743c767-18e1-49b9-91ae-ab536799d1d0",
      "resource": {
        "resourceType": "Observation",
        "code": {
          "text": "Unknown observation code"
        },
        "identifier": [
          {
            "assigner": {
              "identifier": {
                "system": "https://fhir.nhs.uk/Id/ods-organization-code",
                "value": "ROA"
              }
            },
            "system": "urn:oid:1.2.840.114350.1.13.861.1.7.2.798268",
            "type": {
              "coding": [
                {
                  "code": "PLAC",
                  "system": "http://terminology.hl7.org/CodeSystem/v2-0203"
                }
              ]
            },
            "value": "1000170505"
          }
        ],
        "performer": [
          {
            "identifier": {
              "system": "https://fhir.nhs.uk/Id/ods-organization-code",
              "value": "699X0"
            },
            "type": "Organization"
          }
        ],
        "status": "final",
        "subject": {
          "identifier": {
            "assigner": {
              "identifier": {
                "system": "https://fhir.nhs.uk/Id/ods-organization-code",
                "value": "X24"
              }
            },
            "system": "https://fhir.nhs.uk/Id/nhs-number",
            "type": {
              "coding": [
                {
                  "code": "NH",
                  "system": "http://terminology.hl7.org/CodeSystem/v2-0203"
                }
              ]
            },
            "value": "7569773373"
          },
          "reference": "urn:uuid:56769038-eed0-4d20-abf0-68b996725c43"
        }
      }
    },
    {
      "fullUrl": "urn:uuid:9193fd86-9541-4e15-8335-55888898b904",
      "resource": {
        "resourceType": "Observation",
        "code": {
          "coding": [
            {
              "code": "231610",
              "display": "Clinical Utility:",
              "system": "https://fhir.nwgenomics.nhs.uk/CodeSystem/MFTQuestionIds"
            }
          ]
        },
        "effectiveDateTime": "2026-02-11T11:10:59+00:00",
        "identifier": [
          {
            "assigner": {
              "identifier": {
                "system": "https://fhir.nhs.uk/Id/ods-organization-code",
                "value": "ROA"
              }
            },
            "system": "urn:oid:1.2.840.114350.1.13.861.1.7.2.798268",
            "type": {
              "coding": [
                {
                  "code": "PLAC",
                  "system": "http://terminology.hl7.org/CodeSystem/v2-0203"
                }
              ]
            },
            "value": "1000170505"
          }
        ],
        "performer": [
          {
            "identifier": {
              "system": "https://fhir.nhs.uk/Id/ods-organization-code",
              "value": "699X0"
            },
            "type": "Organization"
          }
        ],
        "status": "final",
        "subject": {
          "identifier": {
            "assigner": {
              "identifier": {
                "system": "https://fhir.nhs.uk/Id/ods-organization-code",
                "value": "X24"
              }
            },
            "system": "https://fhir.nhs.uk/Id/nhs-number",
            "type": {
              "coding": [
                {
                  "code": "NH",
                  "system": "http://terminology.hl7.org/CodeSystem/v2-0203"
                }
              ]
            },
            "value": "7569773373"
          },
          "reference": "urn:uuid:56769038-eed0-4d20-abf0-68b996725c43"
        },
        "valueString": "Patient management (determining therapeutic decisions and/or clinical investigations and/or surveillance programme)"
      }
    },
    {
      "fullUrl": "urn:uuid:db4cd00d-9dff-4a4a-aba5-36092c414164",
      "resource": {
        "resourceType": "Observation",
        "code": {
          "coding": [
            {
              "code": "230019",
              "display": "High Infection Risk",
              "system": "https://fhir.nwgenomics.nhs.uk/CodeSystem/MFTQuestionIds"
            }
          ]
        },
        "effectiveDateTime": "2026-02-11T11:10:59+00:00",
        "identifier": [
          {
            "assigner": {
              "identifier": {
                "system": "https://fhir.nhs.uk/Id/ods-organization-code",
                "value": "ROA"
              }
            },
            "system": "urn:oid:1.2.840.114350.1.13.861.1.7.2.798268",
            "type": {
              "coding": [
                {
                  "code": "PLAC",
                  "system": "http://terminology.hl7.org/CodeSystem/v2-0203"
                }
              ]
            },
            "value": "1000170505"
          }
        ],
        "performer": [
          {
            "identifier": {
              "system": "https://fhir.nhs.uk/Id/ods-organization-code",
              "value": "699X0"
            },
            "type": "Organization"
          }
        ],
        "status": "final",
        "subject": {
          "identifier": {
            "assigner": {
              "identifier": {
                "system": "https://fhir.nhs.uk/Id/ods-organization-code",
                "value": "X24"
              }
            },
            "system": "https://fhir.nhs.uk/Id/nhs-number",
            "type": {
              "coding": [
                {
                  "code": "NH",
                  "system": "http://terminology.hl7.org/CodeSystem/v2-0203"
                }
              ]
            },
            "value": "7569773373"
          },
          "reference": "urn:uuid:56769038-eed0-4d20-abf0-68b996725c43"
        },
        "valueString": "No"
      }
    },
    {
      "fullUrl": "urn:uuid:3c55ce1a-1404-43c9-b67b-45f8a539b1bd",
      "resource": {
        "resourceType": "Observation",
        "code": {
          "coding": [
            {
              "code": "230034",
              "display": "Does This Test Relate to a Pregnancy",
              "system": "https://fhir.nwgenomics.nhs.uk/CodeSystem/MFTQuestionIds"
            }
          ]
        },
        "effectiveDateTime": "2026-02-11T11:10:59+00:00",
        "identifier": [
          {
            "assigner": {
              "identifier": {
                "system": "https://fhir.nhs.uk/Id/ods-organization-code",
                "value": "ROA"
              }
            },
            "system": "urn:oid:1.2.840.114350.1.13.861.1.7.2.798268",
            "type": {
              "coding": [
                {
                  "code": "PLAC",
                  "system": "http://terminology.hl7.org/CodeSystem/v2-0203"
                }
              ]
            },
            "value": "1000170505"
          }
        ],
        "performer": [
          {
            "identifier": {
              "system": "https://fhir.nhs.uk/Id/ods-organization-code",
              "value": "699X0"
            },
            "type": "Organization"
          }
        ],
        "status": "final",
        "subject": {
          "identifier": {
            "assigner": {
              "identifier": {
                "system": "https://fhir.nhs.uk/Id/ods-organization-code",
                "value": "X24"
              }
            },
            "system": "https://fhir.nhs.uk/Id/nhs-number",
            "type": {
              "coding": [
                {
                  "code": "NH",
                  "system": "http://terminology.hl7.org/CodeSystem/v2-0203"
                }
              ]
            },
            "value": "7569773373"
          },
          "reference": "urn:uuid:56769038-eed0-4d20-abf0-68b996725c43"
        },
        "valueString": "No"
      }
    },
    {
      "fullUrl": "urn:uuid:99be5b8f-987b-4406-8bb0-62e24e3d9042",
      "resource": {
        "resourceType": "Observation",
        "code": {
          "coding": [
            {
              "code": "230028",
              "display": "Date of Specimen(s) Collection",
              "system": "https://fhir.nwgenomics.nhs.uk/CodeSystem/MFTQuestionIds"
            }
          ]
        },
        "effectiveDateTime": "2026-02-11T11:10:59+00:00",
        "identifier": [
          {
            "assigner": {
              "identifier": {
                "system": "https://fhir.nhs.uk/Id/ods-organization-code",
                "value": "ROA"
              }
            },
            "system": "urn:oid:1.2.840.114350.1.13.861.1.7.2.798268",
            "type": {
              "coding": [
                {
                  "code": "PLAC",
                  "system": "http://terminology.hl7.org/CodeSystem/v2-0203"
                }
              ]
            },
            "value": "1000170505"
          }
        ],
        "performer": [
          {
            "identifier": {
              "system": "https://fhir.nhs.uk/Id/ods-organization-code",
              "value": "699X0"
            },
            "type": "Organization"
          }
        ],
        "status": "final",
        "subject": {
          "identifier": {
            "assigner": {
              "identifier": {
                "system": "https://fhir.nhs.uk/Id/ods-organization-code",
                "value": "X24"
              }
            },
            "system": "https://fhir.nhs.uk/Id/nhs-number",
            "type": {
              "coding": [
                {
                  "code": "NH",
                  "system": "http://terminology.hl7.org/CodeSystem/v2-0203"
                }
              ]
            },
            "value": "7569773373"
          },
          "reference": "urn:uuid:56769038-eed0-4d20-abf0-68b996725c43"
        },
        "valueDateTime": "2026-02-11"
      }
    },
    {
      "fullUrl": "urn:uuid:5ac2d9b0-e140-4c52-be97-6bfeec1c2a1e",
      "resource": {
        "resourceType": "Observation",
        "code": {
          "coding": [
            {
              "code": "230100",
              "display": "Please Note That An Additional Test Order Form 'Whole Genome Sequencing Rare Disease Order Form (Link at Top of Form)' is Required To Activate Testing. If This is Not Received, The DNA Will Be Extracted and Stored",
              "system": "https://fhir.nwgenomics.nhs.uk/CodeSystem/MFTQuestionIds"
            }
          ]
        },
        "effectiveDateTime": "2026-02-11T11:10:59+00:00",
        "identifier": [
          {
            "assigner": {
              "identifier": {
                "system": "https://fhir.nhs.uk/Id/ods-organization-code",
                "value": "ROA"
              }
            },
            "system": "urn:oid:1.2.840.114350.1.13.861.1.7.2.798268",
            "type": {
              "coding": [
                {
                  "code": "PLAC",
                  "system": "http://terminology.hl7.org/CodeSystem/v2-0203"
                }
              ]
            },
            "value": "1000170505"
          }
        ],
        "performer": [
          {
            "identifier": {
              "system": "https://fhir.nhs.uk/Id/ods-organization-code",
              "value": "699X0"
            },
            "type": "Organization"
          }
        ],
        "status": "final",
        "subject": {
          "identifier": {
            "assigner": {
              "identifier": {
                "system": "https://fhir.nhs.uk/Id/ods-organization-code",
                "value": "X24"
              }
            },
            "system": "https://fhir.nhs.uk/Id/nhs-number",
            "type": {
              "coding": [
                {
                  "code": "NH",
                  "system": "http://terminology.hl7.org/CodeSystem/v2-0203"
                }
              ]
            },
            "value": "7569773373"
          },
          "reference": "urn:uuid:56769038-eed0-4d20-abf0-68b996725c43"
        },
        "valueString": "Acknowledged"
      }
    },
    {
      "fullUrl": "urn:uuid:b42c9d9b-b326-4d65-b79c-8b1e2e2bb0f1",
      "resource": {
        "resourceType": "Observation",
        "code": {
          "coding": [
            {
              "code": "230027",
              "display": "Email Addresses of Non-MFT Clinicians for Result Reports",
              "system": "https://fhir.nwgenomics.nhs.uk/CodeSystem/MFTQuestionIds"
            }
          ]
        },
        "effectiveDateTime": "2026-02-11T11:10:59+00:00",
        "identifier": [
          {
            "assigner": {
              "identifier": {
                "system": "https://fhir.nhs.uk/Id/ods-organization-code",
                "value": "ROA"
              }
            },
            "system": "urn:oid:1.2.840.114350.1.13.861.1.7.2.798268",
            "type": {
              "coding": [
                {
                  "code": "PLAC",
                  "system": "http://terminology.hl7.org/CodeSystem/v2-0203"
                }
              ]
            },
            "value": "1000170505"
          }
        ],
        "performer": [
          {
            "identifier": {
              "system": "https://fhir.nhs.uk/Id/ods-organization-code",
              "value": "699X0"
            },
            "type": "Organization"
          }
        ],
        "status": "final",
        "subject": {
          "identifier": {
            "assigner": {
              "identifier": {
                "system": "https://fhir.nhs.uk/Id/ods-organization-code",
                "value": "X24"
              }
            },
            "system": "https://fhir.nhs.uk/Id/nhs-number",
            "type": {
              "coding": [
                {
                  "code": "NH",
                  "system": "http://terminology.hl7.org/CodeSystem/v2-0203"
                }
              ]
            },
            "value": "7569773373"
          },
          "reference": "urn:uuid:56769038-eed0-4d20-abf0-68b996725c43"
        },
        "valueString": "peter.volek@mft.nhs.uk"
      }
    },
    {
      "fullUrl": "urn:uuid:36bf1c1c-4d6e-4f44-a8e5-9d14a9011bb6",
      "resource": {
        "resourceType": "Observation",
        "code": {
          "coding": [
            {
              "code": "230029",
              "display": "Confirmation of Consent for Testing:",
              "system": "https://fhir.nwgenomics.nhs.uk/CodeSystem/MFTQuestionIds"
            }
          ]
        },
        "effectiveDateTime": "2026-02-11T11:10:59+00:00",
        "identifier": [
          {
            "assigner": {
              "identifier": {
                "system": "https://fhir.nhs.uk/Id/ods-organization-code",
                "value": "ROA"
              }
            },
            "system": "urn:oid:1.2.840.114350.1.13.861.1.7.2.798268",
            "type": {
              "coding": [
                {
                  "code": "PLAC",
                  "system": "http://terminology.hl7.org/CodeSystem/v2-0203"
                }
              ]
            },
            "value": "1000170505"
          }
        ],
        "performer": [
          {
            "identifier": {
              "system": "https://fhir.nhs.uk/Id/ods-organization-code",
              "value": "699X0"
            },
            "type": "Organization"
          }
        ],
        "status": "final",
        "subject": {
          "identifier": {
            "assigner": {
              "identifier": {
                "system": "https://fhir.nhs.uk/Id/ods-organization-code",
                "value": "X24"
              }
            },
            "system": "https://fhir.nhs.uk/Id/nhs-number",
            "type": {
              "coding": [
                {
                  "code": "NH",
                  "system": "http://terminology.hl7.org/CodeSystem/v2-0203"
                }
              ]
            },
            "value": "7569773373"
          },
          "reference": "urn:uuid:56769038-eed0-4d20-abf0-68b996725c43"
        },
        "valueString": "Completed Electronically on HIVE"
      }
    },
    {
      "fullUrl": "urn:uuid:64dc70ca-a9dd-4963-ba8c-bfe8062df266",
      "resource": {
        "resourceType": "Observation",
        "code": {
          "coding": [
            {
              "code": "230039",
              "display": "Are you the Patient’s Consultant?",
              "system": "https://fhir.nwgenomics.nhs.uk/CodeSystem/MFTQuestionIds"
            }
          ]
        },
        "effectiveDateTime": "2026-02-11T11:10:59+00:00",
        "identifier": [
          {
            "assigner": {
              "identifier": {
                "system": "https://fhir.nhs.uk/Id/ods-organization-code",
                "value": "ROA"
              }
            },
            "system": "urn:oid:1.2.840.114350.1.13.861.1.7.2.798268",
            "type": {
              "coding": [
                {
                  "code": "PLAC",
                  "system": "http://terminology.hl7.org/CodeSystem/v2-0203"
                }
              ]
            },
            "value": "1000170505"
          }
        ],
        "performer": [
          {
            "identifier": {
              "system": "https://fhir.nhs.uk/Id/ods-organization-code",
              "value": "699X0"
            },
            "type": "Organization"
          }
        ],
        "status": "final",
        "subject": {
          "identifier": {
            "assigner": {
              "identifier": {
                "system": "https://fhir.nhs.uk/Id/ods-organization-code",
                "value": "X24"
              }
            },
            "system": "https://fhir.nhs.uk/Id/nhs-number",
            "type": {
              "coding": [
                {
                  "code": "NH",
                  "system": "http://terminology.hl7.org/CodeSystem/v2-0203"
                }
              ]
            },
            "value": "7569773373"
          },
          "reference": "urn:uuid:56769038-eed0-4d20-abf0-68b996725c43"
        },
        "valueString": "No"
      }
    },
    {
      "fullUrl": "urn:uuid:2486f1c3-9750-4235-b953-3b7328bfa1df",
      "resource": {
        "resourceType": "Observation",
        "code": {
          "coding": [
            {
              "code": "230049",
              "display": "Name of Supervising Consultant",
              "system": "https://fhir.nwgenomics.nhs.uk/CodeSystem/MFTQuestionIds"
            }
          ]
        },
        "effectiveDateTime": "2026-02-11T11:10:59+00:00",
        "identifier": [
          {
            "assigner": {
              "identifier": {
                "system": "https://fhir.nhs.uk/Id/ods-organization-code",
                "value": "ROA"
              }
            },
            "system": "urn:oid:1.2.840.114350.1.13.861.1.7.2.798268",
            "type": {
              "coding": [
                {
                  "code": "PLAC",
                  "system": "http://terminology.hl7.org/CodeSystem/v2-0203"
                }
              ]
            },
            "value": "1000170505"
          }
        ],
        "performer": [
          {
            "identifier": {
              "system": "https://fhir.nhs.uk/Id/ods-organization-code",
              "value": "699X0"
            },
            "type": "Organization"
          }
        ],
        "status": "final",
        "subject": {
          "identifier": {
            "assigner": {
              "identifier": {
                "system": "https://fhir.nhs.uk/Id/ods-organization-code",
                "value": "X24"
              }
            },
            "system": "https://fhir.nhs.uk/Id/nhs-number",
            "type": {
              "coding": [
                {
                  "code": "NH",
                  "system": "http://terminology.hl7.org/CodeSystem/v2-0203"
                }
              ]
            },
            "value": "7569773373"
          },
          "reference": "urn:uuid:56769038-eed0-4d20-abf0-68b996725c43"
        },
        "valueString": "ONCOLOGY, PHYSICIAN"
      }
    },
    {
      "fullUrl": "urn:uuid:ef249f4b-47d9-4043-bdbe-29b6e3fe0745",
      "resource": {
        "resourceType": "Specimen",
        "status": "unavailable",
        "subject": {
          "identifier": {
            "assigner": {
              "identifier": {
                "system": "https://fhir.nhs.uk/Id/ods-organization-code",
                "value": "X24"
              }
            },
            "system": "https://fhir.nhs.uk/Id/nhs-number",
            "type": {
              "coding": [
                {
                  "code": "NH",
                  "system": "http://terminology.hl7.org/CodeSystem/v2-0203"
                }
              ]
            },
            "value": "7569773373"
          },
          "reference": "urn:uuid:56769038-eed0-4d20-abf0-68b996725c43"
        },
        "type": {
          "coding": [
            {
              "code": "SAMPLE:-BL"
            }
          ]
        }
      }
    },
    {
      "fullUrl": "urn:uuid:808c23ad-46ab-4420-95ad-517e44b79eb4",
      "resource": {
        "resourceType": "Specimen",
        "status": "unavailable",
        "subject": {
          "identifier": {
            "assigner": {
              "identifier": {
                "system": "https://fhir.nhs.uk/Id/ods-organization-code",
                "value": "X24"
              }
            },
            "system": "https://fhir.nhs.uk/Id/nhs-number",
            "type": {
              "coding": [
                {
                  "code": "NH",
                  "system": "http://terminology.hl7.org/CodeSystem/v2-0203"
                }
              ]
            },
            "value": "7569773373"
          },
          "reference": "urn:uuid:56769038-eed0-4d20-abf0-68b996725c43"
        },
        "type": {
          "coding": [
            {
              "code": "SAMPLE:-BSP"
            }
          ]
        }
      }
    },
    {
      "fullUrl": "urn:uuid:013dc9f5-76af-421d-a1bb-d4b0e3a879f0",
      "resource": {
        "resourceType": "ServiceRequest",
        "authoredOn": "2026-02-11T11:10:58+00:00",
        "category": [
          {
            "coding": [
              {
                "code": "116148004",
                "system": "http://snomed.info/sct"
              }
            ]
          }
        ],
        "code": {
          "coding": [
            {
              "code": "R59.3",
              "system": "https://fhir.nhs.uk/CodeSystem/England-GenomicTestDirectory"
            }
          ]
        },
        "identifier": [
          {
            "assigner": {
              "identifier": {
                "system": "https://fhir.nhs.uk/Id/ods-organization-code",
                "value": "ROA"
              }
            },
            "system": "urn:oid:1.2.840.114350.1.13.861.1.7.2.798268",
            "type": {
              "coding": [
                {
                  "code": "PLAC",
                  "system": "http://terminology.hl7.org/CodeSystem/v2-0203"
                }
              ]
            },
            "value": "1000170505"
          }
        ],
        "intent": "order",
        "requester": {
          "reference": "urn:uuid:9f518f1d-b492-401a-8b03-56db69f8d95f"
        },
        "specimen": [
          {
            "reference": "urn:uuid:ef249f4b-47d9-4043-bdbe-29b6e3fe0745",
            "type": "Specimen"
          },
          {
            "reference": "urn:uuid:808c23ad-46ab-4420-95ad-517e44b79eb4",
            "type": "Specimen"
          }
        ],
        "status": "active",
        "subject": {
          "identifier": {
            "assigner": {
              "identifier": {
                "system": "https://fhir.nhs.uk/Id/ods-organization-code",
                "value": "X24"
              }
            },
            "system": "https://fhir.nhs.uk/Id/nhs-number",
            "type": {
              "coding": [
                {
                  "code": "NH",
                  "system": "http://terminology.hl7.org/CodeSystem/v2-0203"
                }
              ]
            },
            "value": "7569773373"
          },
          "reference": "urn:uuid:56769038-eed0-4d20-abf0-68b996725c43"
        },
        "supportingInfo": [
          {
            "reference": "urn:uuid:5963ae74-c72a-4205-b032-90b414c60915",
            "type": "Observation"
          },
          {
            "reference": "urn:uuid:104bf0c9-48e7-4504-a733-a69a701ab65f",
            "type": "Observation"
          },
          {
            "reference": "urn:uuid:dde5487e-b0c0-4f90-bbd6-5ec24bd246f1",
            "type": "Observation"
          },
          {
            "reference": "urn:uuid:d743c767-18e1-49b9-91ae-ab536799d1d0",
            "type": "Observation"
          },
          {
            "reference": "urn:uuid:9193fd86-9541-4e15-8335-55888898b904",
            "type": "Observation"
          },
          {
            "reference": "urn:uuid:db4cd00d-9dff-4a4a-aba5-36092c414164",
            "type": "Observation"
          },
          {
            "reference": "urn:uuid:3c55ce1a-1404-43c9-b67b-45f8a539b1bd",
            "type": "Observation"
          },
          {
            "reference": "urn:uuid:99be5b8f-987b-4406-8bb0-62e24e3d9042",
            "type": "Observation"
          },
          {
            "reference": "urn:uuid:5ac2d9b0-e140-4c52-be97-6bfeec1c2a1e",
            "type": "Observation"
          },
          {
            "reference": "urn:uuid:b42c9d9b-b326-4d65-b79c-8b1e2e2bb0f1",
            "type": "Observation"
          },
          {
            "reference": "urn:uuid:36bf1c1c-4d6e-4f44-a8e5-9d14a9011bb6",
            "type": "Observation"
          },
          {
            "reference": "urn:uuid:64dc70ca-a9dd-4963-ba8c-bfe8062df266",
            "type": "Observation"
          },
          {
            "reference": "urn:uuid:2486f1c3-9750-4235-b953-3b7328bfa1df",
            "type": "Observation"
          }
        ]
      }
    }
  ],
  "identifier": {
    "value": "796088666"
  },
  "timestamp": "2026-02-11T11:11:02+00:00",
  "type": "message"
}