{
  "resourceType": "Bundle",
  "entry": [
    {
      "fullUrl": "urn:uuid:3c9922cf-8c02-496f-aa25-e1673b4e8932",
      "resource": {
        "resourceType": "MessageHeader",
        "destination": [
          {
            "endpoint": "https//fhir.mft.nhs.uk/Endpoint/iGene",
            "receiver": {
              "identifier": {
                "system": "https://fhir.nhs.uk/Id/ods-organization-code",
                "value": "SMHGEN"
              }
            }
          }
        ],
        "eventCoding": {
          "code": "O21",
          "system": "http://terminology.hl7.org/CodeSystem/v2-0003"
        },
        "focus": [
          {
            "reference": "urn:uuid:7e5dffe2-8495-4256-be7e-a2be0dae6f28"
          },
          {
            "reference": "urn:uuid:3516a6cc-6437-4d7b-8765-37619a620034"
          }
        ],
        "sender": {
          "identifier": {
            "system": "https://fhir.nhs.uk/Id/ods-organization-code",
            "value": "MFT"
          }
        },
        "source": {
          "endpoint": "https://fhir.nwgenomics.nhs.uk/Endpoint/EpicBeaker",
          "software": "NW GLH"
        }
      }
    },
    {
      "fullUrl": "urn:uuid:9d604d3b-18aa-45ff-a522-79cc9cef2887",
      "resource": {
        "resourceType": "Patient",
        "address": [
          {
            "city": "ASCOT",
            "district": "\"\"",
            "line": [
              "12 HIGH STREET",
              "\"\""
            ],
            "postalCode": "SL5 7JX"
          }
        ],
        "birthDate": "1972-10-25",
        "gender": "male",
        "identifier": [
          {
            "system": "urn:oid:1.2.840.114350.1.13.611.3.7.5.737384.14",
            "type": {
              "coding": [
                {
                  "code": "MR",
                  "system": "http://terminology.hl7.org/CodeSystem/v2-0203"
                }
              ]
            },
            "value": "20003025"
          },
          {
            "assigner": {
              "identifier": {
                "system": "https://fhir.nhs.uk/Id/ods-organization-code",
                "value": "X24"
              }
            },
            "system": "https://fhir.nhs.uk/Id/nhs-number",
            "type": {
              "coding": [
                {
                  "code": "NH",
                  "system": "http://terminology.hl7.org/CodeSystem/v2-0203"
                }
              ]
            },
            "value": "7569773373"
          }
        ],
        "name": [
          {
            "family": "APPCLINDOC",
            "given": [
              "Tenc"
            ],
            "prefix": [
              "\"\""
            ]
          }
        ]
      }
    },
    {
      "fullUrl": "urn:uuid:da28c432-48f4-4376-96c8-5ac25be80fdb",
      "resource": {
        "resourceType": "PractitionerRole",
        "practitioner": {
          "display": "ONCOLOGY, PHYSICIAN",
          "identifier": {
            "system": "https://fhir.hl7.org.uk/Id/gmc-number",
            "value": "999"
          }
        }
      }
    },
    {
      "fullUrl": "urn:uuid:7e5dffe2-8495-4256-be7e-a2be0dae6f28",
      "resource": {
        "resourceType": "ServiceRequest",
        "authoredOn": "2026-02-11T11:10:58+00:00",
        "category": [
          {
            "coding": [
              {
                "code": "116148004",
                "system": "http://snomed.info/sct"
              }
            ]
          }
        ],
        "code": {
          "coding": [
            {
              "code": "R132.1",
              "system": "https://fhir.nhs.uk/CodeSystem/England-GenomicTestDirectory"
            }
          ]
        },
        "identifier": [
          {
            "assigner": {
              "identifier": {
                "system": "https://fhir.nhs.uk/Id/ods-organization-code",
                "value": "ROA"
              }
            },
            "system": "urn:oid:1.2.840.114350.1.13.861.1.7.2.798268",
            "type": {
              "coding": [
                {
                  "code": "PLAC",
                  "system": "http://terminology.hl7.org/CodeSystem/v2-0203"
                }
              ]
            },
            "value": "1000170505"
          }
        ],
        "intent": "order",
        "note": [
          {
            "text": "Wildcard inserted to engage the clinicians. Verify the impact to HL7 Message to iGene.\\n"
          }
        ],
        "requester": {
          "reference": "urn:uuid:da28c432-48f4-4376-96c8-5ac25be80fdb"
        },
        "status": "active",
        "subject": {
          "identifier": {
            "assigner": {
              "identifier": {
                "system": "https://fhir.nhs.uk/Id/ods-organization-code",
                "value": "X24"
              }
            },
            "system": "https://fhir.nhs.uk/Id/nhs-number",
            "type": {
              "coding": [
                {
                  "code": "NH",
                  "system": "http://terminology.hl7.org/CodeSystem/v2-0203"
                }
              ]
            },
            "value": "7569773373"
          },
          "reference": "urn:uuid:9d604d3b-18aa-45ff-a522-79cc9cef2887"
        }
      }
    },
    {
      "fullUrl": "urn:uuid:362ece32-b0ab-4b96-987c-fd40202828dc",
      "resource": {
        "resourceType": "Observation",
        "code": {
          "coding": [
            {
              "code": "230056",
              "display": "What Type of Referral Do You Require?",
              "system": "https://fhir.nwgenomics.nhs.uk/CodeSystem/MFTQuestionIds"
            }
          ]
        },
        "effectiveDateTime": "2026-02-11T11:10:59+00:00",
        "identifier": [
          {
            "assigner": {
              "identifier": {
                "system": "https://fhir.nhs.uk/Id/ods-organization-code",
                "value": "ROA"
              }
            },
            "system": "urn:oid:1.2.840.114350.1.13.861.1.7.2.798268",
            "type": {
              "coding": [
                {
                  "code": "PLAC",
                  "system": "http://terminology.hl7.org/CodeSystem/v2-0203"
                }
              ]
            },
            "value": "1000170505"
          }
        ],
        "performer": [
          {
            "identifier": {
              "system": "https://fhir.nhs.uk/Id/ods-organization-code",
              "value": "699X0"
            },
            "type": "Organization"
          }
        ],
        "status": "final",
        "subject": {
          "identifier": {
            "assigner": {
              "identifier": {
                "system": "https://fhir.nhs.uk/Id/ods-organization-code",
                "value": "X24"
              }
            },
            "system": "https://fhir.nhs.uk/Id/nhs-number",
            "type": {
              "coding": [
                {
                  "code": "NH",
                  "system": "http://terminology.hl7.org/CodeSystem/v2-0203"
                }
              ]
            },
            "value": "7569773373"
          },
          "reference": "urn:uuid:9d604d3b-18aa-45ff-a522-79cc9cef2887"
        },
        "valueString": "Standard"
      }
    },
    {
      "fullUrl": "urn:uuid:9f68d8fb-60e7-4b77-ba2c-929fb22fa72d",
      "resource": {
        "resourceType": "Observation",
        "code": {
          "coding": [
            {
              "code": "230037",
              "display": "DNA Sample Will be Stored in the Laboratory on Completion of Testing",
              "system": "https://fhir.nwgenomics.nhs.uk/CodeSystem/MFTQuestionIds"
            }
          ]
        },
        "effectiveDateTime": "2026-02-11T11:10:59+00:00",
        "identifier": [
          {
            "assigner": {
              "identifier": {
                "system": "https://fhir.nhs.uk/Id/ods-organization-code",
                "value": "ROA"
              }
            },
            "system": "urn:oid:1.2.840.114350.1.13.861.1.7.2.798268",
            "type": {
              "coding": [
                {
                  "code": "PLAC",
                  "system": "http://terminology.hl7.org/CodeSystem/v2-0203"
                }
              ]
            },
            "value": "1000170505"
          }
        ],
        "performer": [
          {
            "identifier": {
              "system": "https://fhir.nhs.uk/Id/ods-organization-code",
              "value": "699X0"
            },
            "type": "Organization"
          }
        ],
        "status": "final",
        "subject": {
          "identifier": {
            "assigner": {
              "identifier": {
                "system": "https://fhir.nhs.uk/Id/ods-organization-code",
                "value": "X24"
              }
            },
            "system": "https://fhir.nhs.uk/Id/nhs-number",
            "type": {
              "coding": [
                {
                  "code": "NH",
                  "system": "http://terminology.hl7.org/CodeSystem/v2-0203"
                }
              ]
            },
            "value": "7569773373"
          },
          "reference": "urn:uuid:9d604d3b-18aa-45ff-a522-79cc9cef2887"
        },
        "valueString": "Please See Comments - *** DNA Storage"
      }
    },
    {
      "fullUrl": "urn:uuid:2aa148c1-bde0-42d7-95b1-047c0fcede2e",
      "resource": {
        "resourceType": "Observation",
        "code": {
          "coding": [
            {
              "code": "230048",
              "display": "Select Clinical Indication(s)",
              "system": "https://fhir.nwgenomics.nhs.uk/CodeSystem/MFTQuestionIds"
            }
          ]
        },
        "effectiveDateTime": "2026-02-11T11:10:59+00:00",
        "identifier": [
          {
            "assigner": {
              "identifier": {
                "system": "https://fhir.nhs.uk/Id/ods-organization-code",
                "value": "ROA"
              }
            },
            "system": "urn:oid:1.2.840.114350.1.13.861.1.7.2.798268",
            "type": {
              "coding": [
                {
                  "code": "PLAC",
                  "system": "http://terminology.hl7.org/CodeSystem/v2-0203"
                }
              ]
            },
            "value": "1000170505"
          }
        ],
        "performer": [
          {
            "identifier": {
              "system": "https://fhir.nhs.uk/Id/ods-organization-code",
              "value": "699X0"
            },
            "type": "Organization"
          }
        ],
        "status": "final",
        "subject": {
          "identifier": {
            "assigner": {
              "identifier": {
                "system": "https://fhir.nhs.uk/Id/ods-organization-code",
                "value": "X24"
              }
            },
            "system": "https://fhir.nhs.uk/Id/nhs-number",
            "type": {
              "coding": [
                {
                  "code": "NH",
                  "system": "http://terminology.hl7.org/CodeSystem/v2-0203"
                }
              ]
            },
            "value": "7569773373"
          },
          "reference": "urn:uuid:9d604d3b-18aa-45ff-a522-79cc9cef2887"
        },
        "valueString": "R132: Dilated and Arrhythmogenic cardiomyopathy"
      }
    },
    {
      "fullUrl": "urn:uuid:4a3a13f3-c60d-455f-a3ca-408fe99f4ce0",
      "resource": {
        "resourceType": "Observation",
        "code": {
          "text": "Unknown observation code"
        },
        "identifier": [
          {
            "assigner": {
              "identifier": {
                "system": "https://fhir.nhs.uk/Id/ods-organization-code",
                "value": "ROA"
              }
            },
            "system": "urn:oid:1.2.840.114350.1.13.861.1.7.2.798268",
            "type": {
              "coding": [
                {
                  "code": "PLAC",
                  "system": "http://terminology.hl7.org/CodeSystem/v2-0203"
                }
              ]
            },
            "value": "1000170505"
          }
        ],
        "performer": [
          {
            "identifier": {
              "system": "https://fhir.nhs.uk/Id/ods-organization-code",
              "value": "699X0"
            },
            "type": "Organization"
          }
        ],
        "status": "final",
        "subject": {
          "identifier": {
            "assigner": {
              "identifier": {
                "system": "https://fhir.nhs.uk/Id/ods-organization-code",
                "value": "X24"
              }
            },
            "system": "https://fhir.nhs.uk/Id/nhs-number",
            "type": {
              "coding": [
                {
                  "code": "NH",
                  "system": "http://terminology.hl7.org/CodeSystem/v2-0203"
                }
              ]
            },
            "value": "7569773373"
          },
          "reference": "urn:uuid:9d604d3b-18aa-45ff-a522-79cc9cef2887"
        }
      }
    },
    {
      "fullUrl": "urn:uuid:40949ae3-5cb3-4766-b57e-54301e3875b9",
      "resource": {
        "resourceType": "Observation",
        "code": {
          "coding": [
            {
              "code": "231610",
              "display": "Clinical Utility:",
              "system": "https://fhir.nwgenomics.nhs.uk/CodeSystem/MFTQuestionIds"
            }
          ]
        },
        "effectiveDateTime": "2026-02-11T11:10:59+00:00",
        "identifier": [
          {
            "assigner": {
              "identifier": {
                "system": "https://fhir.nhs.uk/Id/ods-organization-code",
                "value": "ROA"
              }
            },
            "system": "urn:oid:1.2.840.114350.1.13.861.1.7.2.798268",
            "type": {
              "coding": [
                {
                  "code": "PLAC",
                  "system": "http://terminology.hl7.org/CodeSystem/v2-0203"
                }
              ]
            },
            "value": "1000170505"
          }
        ],
        "performer": [
          {
            "identifier": {
              "system": "https://fhir.nhs.uk/Id/ods-organization-code",
              "value": "699X0"
            },
            "type": "Organization"
          }
        ],
        "status": "final",
        "subject": {
          "identifier": {
            "assigner": {
              "identifier": {
                "system": "https://fhir.nhs.uk/Id/ods-organization-code",
                "value": "X24"
              }
            },
            "system": "https://fhir.nhs.uk/Id/nhs-number",
            "type": {
              "coding": [
                {
                  "code": "NH",
                  "system": "http://terminology.hl7.org/CodeSystem/v2-0203"
                }
              ]
            },
            "value": "7569773373"
          },
          "reference": "urn:uuid:9d604d3b-18aa-45ff-a522-79cc9cef2887"
        },
        "valueString": "Patient management (determining therapeutic decisions and/or clinical investigations and/or surveillance programme)"
      }
    },
    {
      "fullUrl": "urn:uuid:df404900-2d88-4f56-885c-66d464f238cc",
      "resource": {
        "resourceType": "Observation",
        "code": {
          "coding": [
            {
              "code": "230019",
              "display": "High Infection Risk",
              "system": "https://fhir.nwgenomics.nhs.uk/CodeSystem/MFTQuestionIds"
            }
          ]
        },
        "effectiveDateTime": "2026-02-11T11:10:59+00:00",
        "identifier": [
          {
            "assigner": {
              "identifier": {
                "system": "https://fhir.nhs.uk/Id/ods-organization-code",
                "value": "ROA"
              }
            },
            "system": "urn:oid:1.2.840.114350.1.13.861.1.7.2.798268",
            "type": {
              "coding": [
                {
                  "code": "PLAC",
                  "system": "http://terminology.hl7.org/CodeSystem/v2-0203"
                }
              ]
            },
            "value": "1000170505"
          }
        ],
        "performer": [
          {
            "identifier": {
              "system": "https://fhir.nhs.uk/Id/ods-organization-code",
              "value": "699X0"
            },
            "type": "Organization"
          }
        ],
        "status": "final",
        "subject": {
          "identifier": {
            "assigner": {
              "identifier": {
                "system": "https://fhir.nhs.uk/Id/ods-organization-code",
                "value": "X24"
              }
            },
            "system": "https://fhir.nhs.uk/Id/nhs-number",
            "type": {
              "coding": [
                {
                  "code": "NH",
                  "system": "http://terminology.hl7.org/CodeSystem/v2-0203"
                }
              ]
            },
            "value": "7569773373"
          },
          "reference": "urn:uuid:9d604d3b-18aa-45ff-a522-79cc9cef2887"
        },
        "valueString": "No"
      }
    },
    {
      "fullUrl": "urn:uuid:141388bc-2845-4179-82d0-95308f52ae7a",
      "resource": {
        "resourceType": "Observation",
        "code": {
          "coding": [
            {
              "code": "230034",
              "display": "Does This Test Relate to a Pregnancy",
              "system": "https://fhir.nwgenomics.nhs.uk/CodeSystem/MFTQuestionIds"
            }
          ]
        },
        "effectiveDateTime": "2026-02-11T11:10:59+00:00",
        "identifier": [
          {
            "assigner": {
              "identifier": {
                "system": "https://fhir.nhs.uk/Id/ods-organization-code",
                "value": "ROA"
              }
            },
            "system": "urn:oid:1.2.840.114350.1.13.861.1.7.2.798268",
            "type": {
              "coding": [
                {
                  "code": "PLAC",
                  "system": "http://terminology.hl7.org/CodeSystem/v2-0203"
                }
              ]
            },
            "value": "1000170505"
          }
        ],
        "performer": [
          {
            "identifier": {
              "system": "https://fhir.nhs.uk/Id/ods-organization-code",
              "value": "699X0"
            },
            "type": "Organization"
          }
        ],
        "status": "final",
        "subject": {
          "identifier": {
            "assigner": {
              "identifier": {
                "system": "https://fhir.nhs.uk/Id/ods-organization-code",
                "value": "X24"
              }
            },
            "system": "https://fhir.nhs.uk/Id/nhs-number",
            "type": {
              "coding": [
                {
                  "code": "NH",
                  "system": "http://terminology.hl7.org/CodeSystem/v2-0203"
                }
              ]
            },
            "value": "7569773373"
          },
          "reference": "urn:uuid:9d604d3b-18aa-45ff-a522-79cc9cef2887"
        },
        "valueString": "No"
      }
    },
    {
      "fullUrl": "urn:uuid:50564719-8811-4a60-be11-0ebfd5efa502",
      "resource": {
        "resourceType": "Observation",
        "code": {
          "coding": [
            {
              "code": "230028",
              "display": "Date of Specimen(s) Collection",
              "system": "https://fhir.nwgenomics.nhs.uk/CodeSystem/MFTQuestionIds"
            }
          ]
        },
        "effectiveDateTime": "2026-02-11T11:10:59+00:00",
        "identifier": [
          {
            "assigner": {
              "identifier": {
                "system": "https://fhir.nhs.uk/Id/ods-organization-code",
                "value": "ROA"
              }
            },
            "system": "urn:oid:1.2.840.114350.1.13.861.1.7.2.798268",
            "type": {
              "coding": [
                {
                  "code": "PLAC",
                  "system": "http://terminology.hl7.org/CodeSystem/v2-0203"
                }
              ]
            },
            "value": "1000170505"
          }
        ],
        "performer": [
          {
            "identifier": {
              "system": "https://fhir.nhs.uk/Id/ods-organization-code",
              "value": "699X0"
            },
            "type": "Organization"
          }
        ],
        "status": "final",
        "subject": {
          "identifier": {
            "assigner": {
              "identifier": {
                "system": "https://fhir.nhs.uk/Id/ods-organization-code",
                "value": "X24"
              }
            },
            "system": "https://fhir.nhs.uk/Id/nhs-number",
            "type": {
              "coding": [
                {
                  "code": "NH",
                  "system": "http://terminology.hl7.org/CodeSystem/v2-0203"
                }
              ]
            },
            "value": "7569773373"
          },
          "reference": "urn:uuid:9d604d3b-18aa-45ff-a522-79cc9cef2887"
        },
        "valueDateTime": "2026-02-11"
      }
    },
    {
      "fullUrl": "urn:uuid:f0313e85-9639-4a37-80c9-b994d1dab1a5",
      "resource": {
        "resourceType": "Observation",
        "code": {
          "coding": [
            {
              "code": "230100",
              "display": "Please Note That An Additional Test Order Form 'Whole Genome Sequencing Rare Disease Order Form (Link at Top of Form)' is Required To Activate Testing. If This is Not Received, The DNA Will Be Extracted and Stored",
              "system": "https://fhir.nwgenomics.nhs.uk/CodeSystem/MFTQuestionIds"
            }
          ]
        },
        "effectiveDateTime": "2026-02-11T11:10:59+00:00",
        "identifier": [
          {
            "assigner": {
              "identifier": {
                "system": "https://fhir.nhs.uk/Id/ods-organization-code",
                "value": "ROA"
              }
            },
            "system": "urn:oid:1.2.840.114350.1.13.861.1.7.2.798268",
            "type": {
              "coding": [
                {
                  "code": "PLAC",
                  "system": "http://terminology.hl7.org/CodeSystem/v2-0203"
                }
              ]
            },
            "value": "1000170505"
          }
        ],
        "performer": [
          {
            "identifier": {
              "system": "https://fhir.nhs.uk/Id/ods-organization-code",
              "value": "699X0"
            },
            "type": "Organization"
          }
        ],
        "status": "final",
        "subject": {
          "identifier": {
            "assigner": {
              "identifier": {
                "system": "https://fhir.nhs.uk/Id/ods-organization-code",
                "value": "X24"
              }
            },
            "system": "https://fhir.nhs.uk/Id/nhs-number",
            "type": {
              "coding": [
                {
                  "code": "NH",
                  "system": "http://terminology.hl7.org/CodeSystem/v2-0203"
                }
              ]
            },
            "value": "7569773373"
          },
          "reference": "urn:uuid:9d604d3b-18aa-45ff-a522-79cc9cef2887"
        },
        "valueString": "Acknowledged"
      }
    },
    {
      "fullUrl": "urn:uuid:bfdf3019-b278-4a06-b853-cc3f7735183b",
      "resource": {
        "resourceType": "Observation",
        "code": {
          "coding": [
            {
              "code": "230027",
              "display": "Email Addresses of Non-MFT Clinicians for Result Reports",
              "system": "https://fhir.nwgenomics.nhs.uk/CodeSystem/MFTQuestionIds"
            }
          ]
        },
        "effectiveDateTime": "2026-02-11T11:10:59+00:00",
        "identifier": [
          {
            "assigner": {
              "identifier": {
                "system": "https://fhir.nhs.uk/Id/ods-organization-code",
                "value": "ROA"
              }
            },
            "system": "urn:oid:1.2.840.114350.1.13.861.1.7.2.798268",
            "type": {
              "coding": [
                {
                  "code": "PLAC",
                  "system": "http://terminology.hl7.org/CodeSystem/v2-0203"
                }
              ]
            },
            "value": "1000170505"
          }
        ],
        "performer": [
          {
            "identifier": {
              "system": "https://fhir.nhs.uk/Id/ods-organization-code",
              "value": "699X0"
            },
            "type": "Organization"
          }
        ],
        "status": "final",
        "subject": {
          "identifier": {
            "assigner": {
              "identifier": {
                "system": "https://fhir.nhs.uk/Id/ods-organization-code",
                "value": "X24"
              }
            },
            "system": "https://fhir.nhs.uk/Id/nhs-number",
            "type": {
              "coding": [
                {
                  "code": "NH",
                  "system": "http://terminology.hl7.org/CodeSystem/v2-0203"
                }
              ]
            },
            "value": "7569773373"
          },
          "reference": "urn:uuid:9d604d3b-18aa-45ff-a522-79cc9cef2887"
        },
        "valueString": "peter.volek@mft.nhs.uk"
      }
    },
    {
      "fullUrl": "urn:uuid:6082cf8f-2d50-4954-bd9f-24b21b6920dc",
      "resource": {
        "resourceType": "Observation",
        "code": {
          "coding": [
            {
              "code": "230029",
              "display": "Confirmation of Consent for Testing:",
              "system": "https://fhir.nwgenomics.nhs.uk/CodeSystem/MFTQuestionIds"
            }
          ]
        },
        "effectiveDateTime": "2026-02-11T11:10:59+00:00",
        "identifier": [
          {
            "assigner": {
              "identifier": {
                "system": "https://fhir.nhs.uk/Id/ods-organization-code",
                "value": "ROA"
              }
            },
            "system": "urn:oid:1.2.840.114350.1.13.861.1.7.2.798268",
            "type": {
              "coding": [
                {
                  "code": "PLAC",
                  "system": "http://terminology.hl7.org/CodeSystem/v2-0203"
                }
              ]
            },
            "value": "1000170505"
          }
        ],
        "performer": [
          {
            "identifier": {
              "system": "https://fhir.nhs.uk/Id/ods-organization-code",
              "value": "699X0"
            },
            "type": "Organization"
          }
        ],
        "status": "final",
        "subject": {
          "identifier": {
            "assigner": {
              "identifier": {
                "system": "https://fhir.nhs.uk/Id/ods-organization-code",
                "value": "X24"
              }
            },
            "system": "https://fhir.nhs.uk/Id/nhs-number",
            "type": {
              "coding": [
                {
                  "code": "NH",
                  "system": "http://terminology.hl7.org/CodeSystem/v2-0203"
                }
              ]
            },
            "value": "7569773373"
          },
          "reference": "urn:uuid:9d604d3b-18aa-45ff-a522-79cc9cef2887"
        },
        "valueString": "Completed Electronically on HIVE"
      }
    },
    {
      "fullUrl": "urn:uuid:5170b7c5-d147-49b1-a263-ec7e1e8927b1",
      "resource": {
        "resourceType": "Observation",
        "code": {
          "coding": [
            {
              "code": "230039",
              "display": "Are you the Patient’s Consultant?",
              "system": "https://fhir.nwgenomics.nhs.uk/CodeSystem/MFTQuestionIds"
            }
          ]
        },
        "effectiveDateTime": "2026-02-11T11:10:59+00:00",
        "identifier": [
          {
            "assigner": {
              "identifier": {
                "system": "https://fhir.nhs.uk/Id/ods-organization-code",
                "value": "ROA"
              }
            },
            "system": "urn:oid:1.2.840.114350.1.13.861.1.7.2.798268",
            "type": {
              "coding": [
                {
                  "code": "PLAC",
                  "system": "http://terminology.hl7.org/CodeSystem/v2-0203"
                }
              ]
            },
            "value": "1000170505"
          }
        ],
        "performer": [
          {
            "identifier": {
              "system": "https://fhir.nhs.uk/Id/ods-organization-code",
              "value": "699X0"
            },
            "type": "Organization"
          }
        ],
        "status": "final",
        "subject": {
          "identifier": {
            "assigner": {
              "identifier": {
                "system": "https://fhir.nhs.uk/Id/ods-organization-code",
                "value": "X24"
              }
            },
            "system": "https://fhir.nhs.uk/Id/nhs-number",
            "type": {
              "coding": [
                {
                  "code": "NH",
                  "system": "http://terminology.hl7.org/CodeSystem/v2-0203"
                }
              ]
            },
            "value": "7569773373"
          },
          "reference": "urn:uuid:9d604d3b-18aa-45ff-a522-79cc9cef2887"
        },
        "valueString": "No"
      }
    },
    {
      "fullUrl": "urn:uuid:88e32ea8-0503-40e1-bfb8-1369b001151c",
      "resource": {
        "resourceType": "Observation",
        "code": {
          "coding": [
            {
              "code": "230049",
              "display": "Name of Supervising Consultant",
              "system": "https://fhir.nwgenomics.nhs.uk/CodeSystem/MFTQuestionIds"
            }
          ]
        },
        "effectiveDateTime": "2026-02-11T11:10:59+00:00",
        "identifier": [
          {
            "assigner": {
              "identifier": {
                "system": "https://fhir.nhs.uk/Id/ods-organization-code",
                "value": "ROA"
              }
            },
            "system": "urn:oid:1.2.840.114350.1.13.861.1.7.2.798268",
            "type": {
              "coding": [
                {
                  "code": "PLAC",
                  "system": "http://terminology.hl7.org/CodeSystem/v2-0203"
                }
              ]
            },
            "value": "1000170505"
          }
        ],
        "performer": [
          {
            "identifier": {
              "system": "https://fhir.nhs.uk/Id/ods-organization-code",
              "value": "699X0"
            },
            "type": "Organization"
          }
        ],
        "status": "final",
        "subject": {
          "identifier": {
            "assigner": {
              "identifier": {
                "system": "https://fhir.nhs.uk/Id/ods-organization-code",
                "value": "X24"
              }
            },
            "system": "https://fhir.nhs.uk/Id/nhs-number",
            "type": {
              "coding": [
                {
                  "code": "NH",
                  "system": "http://terminology.hl7.org/CodeSystem/v2-0203"
                }
              ]
            },
            "value": "7569773373"
          },
          "reference": "urn:uuid:9d604d3b-18aa-45ff-a522-79cc9cef2887"
        },
        "valueString": "ONCOLOGY, PHYSICIAN"
      }
    },
    {
      "fullUrl": "urn:uuid:84370f43-d885-4320-ba97-48482e19fe42",
      "resource": {
        "resourceType": "Specimen",
        "status": "unavailable",
        "subject": {
          "identifier": {
            "assigner": {
              "identifier": {
                "system": "https://fhir.nhs.uk/Id/ods-organization-code",
                "value": "X24"
              }
            },
            "system": "https://fhir.nhs.uk/Id/nhs-number",
            "type": {
              "coding": [
                {
                  "code": "NH",
                  "system": "http://terminology.hl7.org/CodeSystem/v2-0203"
                }
              ]
            },
            "value": "7569773373"
          },
          "reference": "urn:uuid:9d604d3b-18aa-45ff-a522-79cc9cef2887"
        }
      }
    },
    {
      "fullUrl": "urn:uuid:88c8f0e7-8117-4f82-beca-31e2ce8f2c80",
      "resource": {
        "resourceType": "Specimen",
        "status": "unavailable",
        "subject": {
          "identifier": {
            "assigner": {
              "identifier": {
                "system": "https://fhir.nhs.uk/Id/ods-organization-code",
                "value": "X24"
              }
            },
            "system": "https://fhir.nhs.uk/Id/nhs-number",
            "type": {
              "coding": [
                {
                  "code": "NH",
                  "system": "http://terminology.hl7.org/CodeSystem/v2-0203"
                }
              ]
            },
            "value": "7569773373"
          },
          "reference": "urn:uuid:9d604d3b-18aa-45ff-a522-79cc9cef2887"
        }
      }
    },
    {
      "fullUrl": "urn:uuid:3516a6cc-6437-4d7b-8765-37619a620034",
      "resource": {
        "resourceType": "ServiceRequest",
        "authoredOn": "2026-02-11T11:10:58+00:00",
        "category": [
          {
            "coding": [
              {
                "code": "116148004",
                "system": "http://snomed.info/sct"
              }
            ]
          }
        ],
        "code": {
          "coding": [
            {
              "code": "R59.3",
              "system": "https://fhir.nhs.uk/CodeSystem/England-GenomicTestDirectory"
            }
          ]
        },
        "identifier": [
          {
            "assigner": {
              "identifier": {
                "system": "https://fhir.nhs.uk/Id/ods-organization-code",
                "value": "ROA"
              }
            },
            "system": "urn:oid:1.2.840.114350.1.13.861.1.7.2.798268",
            "type": {
              "coding": [
                {
                  "code": "PLAC",
                  "system": "http://terminology.hl7.org/CodeSystem/v2-0203"
                }
              ]
            },
            "value": "1000170505"
          }
        ],
        "intent": "order",
        "requester": {
          "reference": "urn:uuid:da28c432-48f4-4376-96c8-5ac25be80fdb"
        },
        "specimen": [
          {
            "reference": "urn:uuid:84370f43-d885-4320-ba97-48482e19fe42",
            "type": "Specimen"
          },
          {
            "reference": "urn:uuid:88c8f0e7-8117-4f82-beca-31e2ce8f2c80",
            "type": "Specimen"
          }
        ],
        "status": "active",
        "subject": {
          "identifier": {
            "assigner": {
              "identifier": {
                "system": "https://fhir.nhs.uk/Id/ods-organization-code",
                "value": "X24"
              }
            },
            "system": "https://fhir.nhs.uk/Id/nhs-number",
            "type": {
              "coding": [
                {
                  "code": "NH",
                  "system": "http://terminology.hl7.org/CodeSystem/v2-0203"
                }
              ]
            },
            "value": "7569773373"
          },
          "reference": "urn:uuid:9d604d3b-18aa-45ff-a522-79cc9cef2887"
        },
        "supportingInfo": [
          {
            "reference": "urn:uuid:362ece32-b0ab-4b96-987c-fd40202828dc",
            "type": "Observation"
          },
          {
            "reference": "urn:uuid:9f68d8fb-60e7-4b77-ba2c-929fb22fa72d",
            "type": "Observation"
          },
          {
            "reference": "urn:uuid:2aa148c1-bde0-42d7-95b1-047c0fcede2e",
            "type": "Observation"
          },
          {
            "reference": "urn:uuid:4a3a13f3-c60d-455f-a3ca-408fe99f4ce0",
            "type": "Observation"
          },
          {
            "reference": "urn:uuid:40949ae3-5cb3-4766-b57e-54301e3875b9",
            "type": "Observation"
          },
          {
            "reference": "urn:uuid:df404900-2d88-4f56-885c-66d464f238cc",
            "type": "Observation"
          },
          {
            "reference": "urn:uuid:141388bc-2845-4179-82d0-95308f52ae7a",
            "type": "Observation"
          },
          {
            "reference": "urn:uuid:50564719-8811-4a60-be11-0ebfd5efa502",
            "type": "Observation"
          },
          {
            "reference": "urn:uuid:f0313e85-9639-4a37-80c9-b994d1dab1a5",
            "type": "Observation"
          },
          {
            "reference": "urn:uuid:bfdf3019-b278-4a06-b853-cc3f7735183b",
            "type": "Observation"
          },
          {
            "reference": "urn:uuid:6082cf8f-2d50-4954-bd9f-24b21b6920dc",
            "type": "Observation"
          },
          {
            "reference": "urn:uuid:5170b7c5-d147-49b1-a263-ec7e1e8927b1",
            "type": "Observation"
          },
          {
            "reference": "urn:uuid:88e32ea8-0503-40e1-bfb8-1369b001151c",
            "type": "Observation"
          }
        ]
      }
    }
  ],
  "identifier": {
    "value": "796088666"
  },
  "timestamp": "2026-02-11T11:11:02+00:00",
  "type": "message"
}