{
  "resourceType": "Bundle",
  "entry": [
    {
      "fullUrl": "urn:uuid:c96f08d0-281e-4e2c-aa3a-e7d4d1a3be95",
      "resource": {
        "resourceType": "MessageHeader",
        "destination": [
          {
            "endpoint": "https//fhir.mft.nhs.uk/Endpoint/iGene",
            "receiver": {
              "identifier": {
                "system": "https://fhir.nhs.uk/Id/ods-organization-code",
                "value": "SMHGEN"
              }
            }
          }
        ],
        "eventCoding": {
          "code": "O21",
          "system": "http://terminology.hl7.org/CodeSystem/v2-0003"
        },
        "focus": [
          {
            "reference": "urn:uuid:3fcf6f2c-519d-4beb-a3a5-d872c2a7cfb2"
          },
          {
            "reference": "urn:uuid:bdebd72e-b6ff-4669-a0b6-d35c6706fb4a"
          }
        ],
        "sender": {
          "identifier": {
            "system": "https://fhir.nhs.uk/Id/ods-organization-code",
            "value": "MFT"
          }
        },
        "source": {
          "endpoint": "https://fhir.nwgenomics.nhs.uk/Endpoint/EpicBeaker",
          "software": "NW GLH"
        }
      }
    },
    {
      "fullUrl": "urn:uuid:c13d63ef-bc05-4358-b8eb-d25011f75916",
      "resource": {
        "resourceType": "Patient",
        "address": [
          {
            "city": "ASCOT",
            "district": "\"\"",
            "line": [
              "12 HIGH STREET",
              "\"\""
            ],
            "postalCode": "SL5 7JX"
          }
        ],
        "birthDate": "1972-10-25",
        "gender": "male",
        "identifier": [
          {
            "system": "urn:oid:1.2.840.114350.1.13.611.3.7.5.737384.14",
            "type": {
              "coding": [
                {
                  "code": "MR",
                  "system": "http://terminology.hl7.org/CodeSystem/v2-0203"
                }
              ]
            },
            "value": "20003025"
          },
          {
            "assigner": {
              "identifier": {
                "system": "https://fhir.nhs.uk/Id/ods-organization-code",
                "value": "X24"
              }
            },
            "system": "https://fhir.nhs.uk/Id/nhs-number",
            "type": {
              "coding": [
                {
                  "code": "NH",
                  "system": "http://terminology.hl7.org/CodeSystem/v2-0203"
                }
              ]
            },
            "value": "7569773373"
          }
        ],
        "name": [
          {
            "family": "APPCLINDOC",
            "given": [
              "Tenc"
            ],
            "prefix": [
              "\"\""
            ]
          }
        ]
      }
    },
    {
      "fullUrl": "urn:uuid:20b2b371-2035-418a-978d-be94222ab629",
      "resource": {
        "resourceType": "PractitionerRole",
        "practitioner": {
          "display": "ONCOLOGY, PHYSICIAN",
          "identifier": {
            "system": "https://fhir.hl7.org.uk/Id/gmc-number",
            "value": "999"
          }
        }
      }
    },
    {
      "fullUrl": "urn:uuid:3fcf6f2c-519d-4beb-a3a5-d872c2a7cfb2",
      "resource": {
        "resourceType": "ServiceRequest",
        "authoredOn": "2026-02-11T11:10:58+00:00",
        "category": [
          {
            "coding": [
              {
                "code": "116148004",
                "system": "http://snomed.info/sct"
              }
            ]
          }
        ],
        "code": {
          "coding": [
            {
              "code": "R132.1",
              "system": "https://fhir.nhs.uk/CodeSystem/England-GenomicTestDirectory"
            }
          ]
        },
        "identifier": [
          {
            "assigner": {
              "identifier": {
                "system": "https://fhir.nhs.uk/Id/ods-organization-code",
                "value": "ROA"
              }
            },
            "system": "urn:oid:1.2.840.114350.1.13.861.1.7.2.798268",
            "type": {
              "coding": [
                {
                  "code": "PLAC",
                  "system": "http://terminology.hl7.org/CodeSystem/v2-0203"
                }
              ]
            },
            "value": "1000170505"
          }
        ],
        "intent": "order",
        "note": [
          {
            "text": "Wildcard inserted to engage the clinicians. Verify the impact to HL7 Message to iGene.\\n"
          }
        ],
        "requester": {
          "reference": "urn:uuid:20b2b371-2035-418a-978d-be94222ab629"
        },
        "status": "active",
        "subject": {
          "identifier": {
            "assigner": {
              "identifier": {
                "system": "https://fhir.nhs.uk/Id/ods-organization-code",
                "value": "X24"
              }
            },
            "system": "https://fhir.nhs.uk/Id/nhs-number",
            "type": {
              "coding": [
                {
                  "code": "NH",
                  "system": "http://terminology.hl7.org/CodeSystem/v2-0203"
                }
              ]
            },
            "value": "7569773373"
          },
          "reference": "urn:uuid:c13d63ef-bc05-4358-b8eb-d25011f75916"
        }
      }
    },
    {
      "fullUrl": "urn:uuid:d8e090cf-d8f7-42e9-97d2-3b02fe3d7115",
      "resource": {
        "resourceType": "Observation",
        "code": {
          "coding": [
            {
              "code": "230056",
              "display": "What Type of Referral Do You Require?",
              "system": "https://fhir.nwgenomics.nhs.uk/CodeSystem/MFTQuestionIds"
            }
          ]
        },
        "effectiveDateTime": "2026-02-11T11:10:59+00:00",
        "identifier": [
          {
            "assigner": {
              "identifier": {
                "system": "https://fhir.nhs.uk/Id/ods-organization-code",
                "value": "ROA"
              }
            },
            "system": "urn:oid:1.2.840.114350.1.13.861.1.7.2.798268",
            "type": {
              "coding": [
                {
                  "code": "PLAC",
                  "system": "http://terminology.hl7.org/CodeSystem/v2-0203"
                }
              ]
            },
            "value": "1000170505"
          }
        ],
        "performer": [
          {
            "identifier": {
              "system": "https://fhir.nhs.uk/Id/ods-organization-code",
              "value": "699X0"
            },
            "type": "Organization"
          }
        ],
        "status": "final",
        "subject": {
          "identifier": {
            "assigner": {
              "identifier": {
                "system": "https://fhir.nhs.uk/Id/ods-organization-code",
                "value": "X24"
              }
            },
            "system": "https://fhir.nhs.uk/Id/nhs-number",
            "type": {
              "coding": [
                {
                  "code": "NH",
                  "system": "http://terminology.hl7.org/CodeSystem/v2-0203"
                }
              ]
            },
            "value": "7569773373"
          },
          "reference": "urn:uuid:c13d63ef-bc05-4358-b8eb-d25011f75916"
        },
        "valueString": "Standard"
      }
    },
    {
      "fullUrl": "urn:uuid:b6b0a677-fce5-447c-b3e2-c5dd9696fba0",
      "resource": {
        "resourceType": "Observation",
        "code": {
          "coding": [
            {
              "code": "230037",
              "display": "DNA Sample Will be Stored in the Laboratory on Completion of Testing",
              "system": "https://fhir.nwgenomics.nhs.uk/CodeSystem/MFTQuestionIds"
            }
          ]
        },
        "effectiveDateTime": "2026-02-11T11:10:59+00:00",
        "identifier": [
          {
            "assigner": {
              "identifier": {
                "system": "https://fhir.nhs.uk/Id/ods-organization-code",
                "value": "ROA"
              }
            },
            "system": "urn:oid:1.2.840.114350.1.13.861.1.7.2.798268",
            "type": {
              "coding": [
                {
                  "code": "PLAC",
                  "system": "http://terminology.hl7.org/CodeSystem/v2-0203"
                }
              ]
            },
            "value": "1000170505"
          }
        ],
        "performer": [
          {
            "identifier": {
              "system": "https://fhir.nhs.uk/Id/ods-organization-code",
              "value": "699X0"
            },
            "type": "Organization"
          }
        ],
        "status": "final",
        "subject": {
          "identifier": {
            "assigner": {
              "identifier": {
                "system": "https://fhir.nhs.uk/Id/ods-organization-code",
                "value": "X24"
              }
            },
            "system": "https://fhir.nhs.uk/Id/nhs-number",
            "type": {
              "coding": [
                {
                  "code": "NH",
                  "system": "http://terminology.hl7.org/CodeSystem/v2-0203"
                }
              ]
            },
            "value": "7569773373"
          },
          "reference": "urn:uuid:c13d63ef-bc05-4358-b8eb-d25011f75916"
        },
        "valueString": "Please See Comments - *** DNA Storage"
      }
    },
    {
      "fullUrl": "urn:uuid:844db842-79a4-424f-a6f4-c4fbbcf2fa15",
      "resource": {
        "resourceType": "Observation",
        "code": {
          "coding": [
            {
              "code": "230048",
              "display": "Select Clinical Indication(s)",
              "system": "https://fhir.nwgenomics.nhs.uk/CodeSystem/MFTQuestionIds"
            }
          ]
        },
        "effectiveDateTime": "2026-02-11T11:10:59+00:00",
        "identifier": [
          {
            "assigner": {
              "identifier": {
                "system": "https://fhir.nhs.uk/Id/ods-organization-code",
                "value": "ROA"
              }
            },
            "system": "urn:oid:1.2.840.114350.1.13.861.1.7.2.798268",
            "type": {
              "coding": [
                {
                  "code": "PLAC",
                  "system": "http://terminology.hl7.org/CodeSystem/v2-0203"
                }
              ]
            },
            "value": "1000170505"
          }
        ],
        "performer": [
          {
            "identifier": {
              "system": "https://fhir.nhs.uk/Id/ods-organization-code",
              "value": "699X0"
            },
            "type": "Organization"
          }
        ],
        "status": "final",
        "subject": {
          "identifier": {
            "assigner": {
              "identifier": {
                "system": "https://fhir.nhs.uk/Id/ods-organization-code",
                "value": "X24"
              }
            },
            "system": "https://fhir.nhs.uk/Id/nhs-number",
            "type": {
              "coding": [
                {
                  "code": "NH",
                  "system": "http://terminology.hl7.org/CodeSystem/v2-0203"
                }
              ]
            },
            "value": "7569773373"
          },
          "reference": "urn:uuid:c13d63ef-bc05-4358-b8eb-d25011f75916"
        },
        "valueString": "R132: Dilated and Arrhythmogenic cardiomyopathy"
      }
    },
    {
      "fullUrl": "urn:uuid:1b929950-6b2f-4e8f-a00d-c896f8593281",
      "resource": {
        "resourceType": "Observation",
        "code": {
          "text": "Unknown observation code"
        },
        "identifier": [
          {
            "assigner": {
              "identifier": {
                "system": "https://fhir.nhs.uk/Id/ods-organization-code",
                "value": "ROA"
              }
            },
            "system": "urn:oid:1.2.840.114350.1.13.861.1.7.2.798268",
            "type": {
              "coding": [
                {
                  "code": "PLAC",
                  "system": "http://terminology.hl7.org/CodeSystem/v2-0203"
                }
              ]
            },
            "value": "1000170505"
          }
        ],
        "performer": [
          {
            "identifier": {
              "system": "https://fhir.nhs.uk/Id/ods-organization-code",
              "value": "699X0"
            },
            "type": "Organization"
          }
        ],
        "status": "final",
        "subject": {
          "identifier": {
            "assigner": {
              "identifier": {
                "system": "https://fhir.nhs.uk/Id/ods-organization-code",
                "value": "X24"
              }
            },
            "system": "https://fhir.nhs.uk/Id/nhs-number",
            "type": {
              "coding": [
                {
                  "code": "NH",
                  "system": "http://terminology.hl7.org/CodeSystem/v2-0203"
                }
              ]
            },
            "value": "7569773373"
          },
          "reference": "urn:uuid:c13d63ef-bc05-4358-b8eb-d25011f75916"
        }
      }
    },
    {
      "fullUrl": "urn:uuid:1ea65ebf-eb3b-4f7a-9d07-48338b261c10",
      "resource": {
        "resourceType": "Observation",
        "code": {
          "coding": [
            {
              "code": "231610",
              "display": "Clinical Utility:",
              "system": "https://fhir.nwgenomics.nhs.uk/CodeSystem/MFTQuestionIds"
            }
          ]
        },
        "effectiveDateTime": "2026-02-11T11:10:59+00:00",
        "identifier": [
          {
            "assigner": {
              "identifier": {
                "system": "https://fhir.nhs.uk/Id/ods-organization-code",
                "value": "ROA"
              }
            },
            "system": "urn:oid:1.2.840.114350.1.13.861.1.7.2.798268",
            "type": {
              "coding": [
                {
                  "code": "PLAC",
                  "system": "http://terminology.hl7.org/CodeSystem/v2-0203"
                }
              ]
            },
            "value": "1000170505"
          }
        ],
        "performer": [
          {
            "identifier": {
              "system": "https://fhir.nhs.uk/Id/ods-organization-code",
              "value": "699X0"
            },
            "type": "Organization"
          }
        ],
        "status": "final",
        "subject": {
          "identifier": {
            "assigner": {
              "identifier": {
                "system": "https://fhir.nhs.uk/Id/ods-organization-code",
                "value": "X24"
              }
            },
            "system": "https://fhir.nhs.uk/Id/nhs-number",
            "type": {
              "coding": [
                {
                  "code": "NH",
                  "system": "http://terminology.hl7.org/CodeSystem/v2-0203"
                }
              ]
            },
            "value": "7569773373"
          },
          "reference": "urn:uuid:c13d63ef-bc05-4358-b8eb-d25011f75916"
        },
        "valueString": "Patient management (determining therapeutic decisions and/or clinical investigations and/or surveillance programme)"
      }
    },
    {
      "fullUrl": "urn:uuid:0832256b-930c-46f0-9dc1-423b4bdff44b",
      "resource": {
        "resourceType": "Observation",
        "code": {
          "coding": [
            {
              "code": "230019",
              "display": "High Infection Risk",
              "system": "https://fhir.nwgenomics.nhs.uk/CodeSystem/MFTQuestionIds"
            }
          ]
        },
        "effectiveDateTime": "2026-02-11T11:10:59+00:00",
        "identifier": [
          {
            "assigner": {
              "identifier": {
                "system": "https://fhir.nhs.uk/Id/ods-organization-code",
                "value": "ROA"
              }
            },
            "system": "urn:oid:1.2.840.114350.1.13.861.1.7.2.798268",
            "type": {
              "coding": [
                {
                  "code": "PLAC",
                  "system": "http://terminology.hl7.org/CodeSystem/v2-0203"
                }
              ]
            },
            "value": "1000170505"
          }
        ],
        "performer": [
          {
            "identifier": {
              "system": "https://fhir.nhs.uk/Id/ods-organization-code",
              "value": "699X0"
            },
            "type": "Organization"
          }
        ],
        "status": "final",
        "subject": {
          "identifier": {
            "assigner": {
              "identifier": {
                "system": "https://fhir.nhs.uk/Id/ods-organization-code",
                "value": "X24"
              }
            },
            "system": "https://fhir.nhs.uk/Id/nhs-number",
            "type": {
              "coding": [
                {
                  "code": "NH",
                  "system": "http://terminology.hl7.org/CodeSystem/v2-0203"
                }
              ]
            },
            "value": "7569773373"
          },
          "reference": "urn:uuid:c13d63ef-bc05-4358-b8eb-d25011f75916"
        },
        "valueString": "No"
      }
    },
    {
      "fullUrl": "urn:uuid:86dc8ef1-095b-4f8e-9bf3-3c8afbd6e0b6",
      "resource": {
        "resourceType": "Observation",
        "code": {
          "coding": [
            {
              "code": "230034",
              "display": "Does This Test Relate to a Pregnancy",
              "system": "https://fhir.nwgenomics.nhs.uk/CodeSystem/MFTQuestionIds"
            }
          ]
        },
        "effectiveDateTime": "2026-02-11T11:10:59+00:00",
        "identifier": [
          {
            "assigner": {
              "identifier": {
                "system": "https://fhir.nhs.uk/Id/ods-organization-code",
                "value": "ROA"
              }
            },
            "system": "urn:oid:1.2.840.114350.1.13.861.1.7.2.798268",
            "type": {
              "coding": [
                {
                  "code": "PLAC",
                  "system": "http://terminology.hl7.org/CodeSystem/v2-0203"
                }
              ]
            },
            "value": "1000170505"
          }
        ],
        "performer": [
          {
            "identifier": {
              "system": "https://fhir.nhs.uk/Id/ods-organization-code",
              "value": "699X0"
            },
            "type": "Organization"
          }
        ],
        "status": "final",
        "subject": {
          "identifier": {
            "assigner": {
              "identifier": {
                "system": "https://fhir.nhs.uk/Id/ods-organization-code",
                "value": "X24"
              }
            },
            "system": "https://fhir.nhs.uk/Id/nhs-number",
            "type": {
              "coding": [
                {
                  "code": "NH",
                  "system": "http://terminology.hl7.org/CodeSystem/v2-0203"
                }
              ]
            },
            "value": "7569773373"
          },
          "reference": "urn:uuid:c13d63ef-bc05-4358-b8eb-d25011f75916"
        },
        "valueString": "No"
      }
    },
    {
      "fullUrl": "urn:uuid:e2e382c1-3653-4d1c-b82c-b5bc85e164e9",
      "resource": {
        "resourceType": "Observation",
        "code": {
          "coding": [
            {
              "code": "230028",
              "display": "Date of Specimen(s) Collection",
              "system": "https://fhir.nwgenomics.nhs.uk/CodeSystem/MFTQuestionIds"
            }
          ]
        },
        "effectiveDateTime": "2026-02-11T11:10:59+00:00",
        "identifier": [
          {
            "assigner": {
              "identifier": {
                "system": "https://fhir.nhs.uk/Id/ods-organization-code",
                "value": "ROA"
              }
            },
            "system": "urn:oid:1.2.840.114350.1.13.861.1.7.2.798268",
            "type": {
              "coding": [
                {
                  "code": "PLAC",
                  "system": "http://terminology.hl7.org/CodeSystem/v2-0203"
                }
              ]
            },
            "value": "1000170505"
          }
        ],
        "performer": [
          {
            "identifier": {
              "system": "https://fhir.nhs.uk/Id/ods-organization-code",
              "value": "699X0"
            },
            "type": "Organization"
          }
        ],
        "status": "final",
        "subject": {
          "identifier": {
            "assigner": {
              "identifier": {
                "system": "https://fhir.nhs.uk/Id/ods-organization-code",
                "value": "X24"
              }
            },
            "system": "https://fhir.nhs.uk/Id/nhs-number",
            "type": {
              "coding": [
                {
                  "code": "NH",
                  "system": "http://terminology.hl7.org/CodeSystem/v2-0203"
                }
              ]
            },
            "value": "7569773373"
          },
          "reference": "urn:uuid:c13d63ef-bc05-4358-b8eb-d25011f75916"
        },
        "valueDateTime": "2026-02-11"
      }
    },
    {
      "fullUrl": "urn:uuid:29b05c86-47d2-4aaa-9814-c3ecfec822ce",
      "resource": {
        "resourceType": "Observation",
        "code": {
          "coding": [
            {
              "code": "230100",
              "display": "Please Note That An Additional Test Order Form 'Whole Genome Sequencing Rare Disease Order Form (Link at Top of Form)' is Required To Activate Testing. If This is Not Received, The DNA Will Be Extracted and Stored",
              "system": "https://fhir.nwgenomics.nhs.uk/CodeSystem/MFTQuestionIds"
            }
          ]
        },
        "effectiveDateTime": "2026-02-11T11:10:59+00:00",
        "identifier": [
          {
            "assigner": {
              "identifier": {
                "system": "https://fhir.nhs.uk/Id/ods-organization-code",
                "value": "ROA"
              }
            },
            "system": "urn:oid:1.2.840.114350.1.13.861.1.7.2.798268",
            "type": {
              "coding": [
                {
                  "code": "PLAC",
                  "system": "http://terminology.hl7.org/CodeSystem/v2-0203"
                }
              ]
            },
            "value": "1000170505"
          }
        ],
        "performer": [
          {
            "identifier": {
              "system": "https://fhir.nhs.uk/Id/ods-organization-code",
              "value": "699X0"
            },
            "type": "Organization"
          }
        ],
        "status": "final",
        "subject": {
          "identifier": {
            "assigner": {
              "identifier": {
                "system": "https://fhir.nhs.uk/Id/ods-organization-code",
                "value": "X24"
              }
            },
            "system": "https://fhir.nhs.uk/Id/nhs-number",
            "type": {
              "coding": [
                {
                  "code": "NH",
                  "system": "http://terminology.hl7.org/CodeSystem/v2-0203"
                }
              ]
            },
            "value": "7569773373"
          },
          "reference": "urn:uuid:c13d63ef-bc05-4358-b8eb-d25011f75916"
        },
        "valueString": "Acknowledged"
      }
    },
    {
      "fullUrl": "urn:uuid:3c04dede-e5d7-442b-a006-a3159ae77a71",
      "resource": {
        "resourceType": "Observation",
        "code": {
          "coding": [
            {
              "code": "230027",
              "display": "Email Addresses of Non-MFT Clinicians for Result Reports",
              "system": "https://fhir.nwgenomics.nhs.uk/CodeSystem/MFTQuestionIds"
            }
          ]
        },
        "effectiveDateTime": "2026-02-11T11:10:59+00:00",
        "identifier": [
          {
            "assigner": {
              "identifier": {
                "system": "https://fhir.nhs.uk/Id/ods-organization-code",
                "value": "ROA"
              }
            },
            "system": "urn:oid:1.2.840.114350.1.13.861.1.7.2.798268",
            "type": {
              "coding": [
                {
                  "code": "PLAC",
                  "system": "http://terminology.hl7.org/CodeSystem/v2-0203"
                }
              ]
            },
            "value": "1000170505"
          }
        ],
        "performer": [
          {
            "identifier": {
              "system": "https://fhir.nhs.uk/Id/ods-organization-code",
              "value": "699X0"
            },
            "type": "Organization"
          }
        ],
        "status": "final",
        "subject": {
          "identifier": {
            "assigner": {
              "identifier": {
                "system": "https://fhir.nhs.uk/Id/ods-organization-code",
                "value": "X24"
              }
            },
            "system": "https://fhir.nhs.uk/Id/nhs-number",
            "type": {
              "coding": [
                {
                  "code": "NH",
                  "system": "http://terminology.hl7.org/CodeSystem/v2-0203"
                }
              ]
            },
            "value": "7569773373"
          },
          "reference": "urn:uuid:c13d63ef-bc05-4358-b8eb-d25011f75916"
        },
        "valueString": "peter.volek@mft.nhs.uk"
      }
    },
    {
      "fullUrl": "urn:uuid:bd0a4bae-8b5a-466a-927b-44b31736d1c2",
      "resource": {
        "resourceType": "Observation",
        "code": {
          "coding": [
            {
              "code": "230029",
              "display": "Confirmation of Consent for Testing:",
              "system": "https://fhir.nwgenomics.nhs.uk/CodeSystem/MFTQuestionIds"
            }
          ]
        },
        "effectiveDateTime": "2026-02-11T11:10:59+00:00",
        "identifier": [
          {
            "assigner": {
              "identifier": {
                "system": "https://fhir.nhs.uk/Id/ods-organization-code",
                "value": "ROA"
              }
            },
            "system": "urn:oid:1.2.840.114350.1.13.861.1.7.2.798268",
            "type": {
              "coding": [
                {
                  "code": "PLAC",
                  "system": "http://terminology.hl7.org/CodeSystem/v2-0203"
                }
              ]
            },
            "value": "1000170505"
          }
        ],
        "performer": [
          {
            "identifier": {
              "system": "https://fhir.nhs.uk/Id/ods-organization-code",
              "value": "699X0"
            },
            "type": "Organization"
          }
        ],
        "status": "final",
        "subject": {
          "identifier": {
            "assigner": {
              "identifier": {
                "system": "https://fhir.nhs.uk/Id/ods-organization-code",
                "value": "X24"
              }
            },
            "system": "https://fhir.nhs.uk/Id/nhs-number",
            "type": {
              "coding": [
                {
                  "code": "NH",
                  "system": "http://terminology.hl7.org/CodeSystem/v2-0203"
                }
              ]
            },
            "value": "7569773373"
          },
          "reference": "urn:uuid:c13d63ef-bc05-4358-b8eb-d25011f75916"
        },
        "valueString": "Completed Electronically on HIVE"
      }
    },
    {
      "fullUrl": "urn:uuid:4239118e-8ca5-4796-af63-328d33f7dea2",
      "resource": {
        "resourceType": "Observation",
        "code": {
          "coding": [
            {
              "code": "230039",
              "display": "Are you the Patient’s Consultant?",
              "system": "https://fhir.nwgenomics.nhs.uk/CodeSystem/MFTQuestionIds"
            }
          ]
        },
        "effectiveDateTime": "2026-02-11T11:10:59+00:00",
        "identifier": [
          {
            "assigner": {
              "identifier": {
                "system": "https://fhir.nhs.uk/Id/ods-organization-code",
                "value": "ROA"
              }
            },
            "system": "urn:oid:1.2.840.114350.1.13.861.1.7.2.798268",
            "type": {
              "coding": [
                {
                  "code": "PLAC",
                  "system": "http://terminology.hl7.org/CodeSystem/v2-0203"
                }
              ]
            },
            "value": "1000170505"
          }
        ],
        "performer": [
          {
            "identifier": {
              "system": "https://fhir.nhs.uk/Id/ods-organization-code",
              "value": "699X0"
            },
            "type": "Organization"
          }
        ],
        "status": "final",
        "subject": {
          "identifier": {
            "assigner": {
              "identifier": {
                "system": "https://fhir.nhs.uk/Id/ods-organization-code",
                "value": "X24"
              }
            },
            "system": "https://fhir.nhs.uk/Id/nhs-number",
            "type": {
              "coding": [
                {
                  "code": "NH",
                  "system": "http://terminology.hl7.org/CodeSystem/v2-0203"
                }
              ]
            },
            "value": "7569773373"
          },
          "reference": "urn:uuid:c13d63ef-bc05-4358-b8eb-d25011f75916"
        },
        "valueString": "No"
      }
    },
    {
      "fullUrl": "urn:uuid:3db98249-fe9b-428e-aad0-5d15522dc652",
      "resource": {
        "resourceType": "Observation",
        "code": {
          "coding": [
            {
              "code": "230049",
              "display": "Name of Supervising Consultant",
              "system": "https://fhir.nwgenomics.nhs.uk/CodeSystem/MFTQuestionIds"
            }
          ]
        },
        "effectiveDateTime": "2026-02-11T11:10:59+00:00",
        "identifier": [
          {
            "assigner": {
              "identifier": {
                "system": "https://fhir.nhs.uk/Id/ods-organization-code",
                "value": "ROA"
              }
            },
            "system": "urn:oid:1.2.840.114350.1.13.861.1.7.2.798268",
            "type": {
              "coding": [
                {
                  "code": "PLAC",
                  "system": "http://terminology.hl7.org/CodeSystem/v2-0203"
                }
              ]
            },
            "value": "1000170505"
          }
        ],
        "performer": [
          {
            "identifier": {
              "system": "https://fhir.nhs.uk/Id/ods-organization-code",
              "value": "699X0"
            },
            "type": "Organization"
          }
        ],
        "status": "final",
        "subject": {
          "identifier": {
            "assigner": {
              "identifier": {
                "system": "https://fhir.nhs.uk/Id/ods-organization-code",
                "value": "X24"
              }
            },
            "system": "https://fhir.nhs.uk/Id/nhs-number",
            "type": {
              "coding": [
                {
                  "code": "NH",
                  "system": "http://terminology.hl7.org/CodeSystem/v2-0203"
                }
              ]
            },
            "value": "7569773373"
          },
          "reference": "urn:uuid:c13d63ef-bc05-4358-b8eb-d25011f75916"
        },
        "valueString": "ONCOLOGY, PHYSICIAN"
      }
    },
    {
      "fullUrl": "urn:uuid:69f2eb03-e672-48c1-b655-61bcd424ab74",
      "resource": {
        "resourceType": "Specimen",
        "status": "unavailable",
        "subject": {
          "identifier": {
            "assigner": {
              "identifier": {
                "system": "https://fhir.nhs.uk/Id/ods-organization-code",
                "value": "X24"
              }
            },
            "system": "https://fhir.nhs.uk/Id/nhs-number",
            "type": {
              "coding": [
                {
                  "code": "NH",
                  "system": "http://terminology.hl7.org/CodeSystem/v2-0203"
                }
              ]
            },
            "value": "7569773373"
          },
          "reference": "urn:uuid:c13d63ef-bc05-4358-b8eb-d25011f75916"
        }
      }
    },
    {
      "fullUrl": "urn:uuid:4e6741a2-5de8-4f03-8a47-c44a8461b63c",
      "resource": {
        "resourceType": "Specimen",
        "status": "unavailable",
        "subject": {
          "identifier": {
            "assigner": {
              "identifier": {
                "system": "https://fhir.nhs.uk/Id/ods-organization-code",
                "value": "X24"
              }
            },
            "system": "https://fhir.nhs.uk/Id/nhs-number",
            "type": {
              "coding": [
                {
                  "code": "NH",
                  "system": "http://terminology.hl7.org/CodeSystem/v2-0203"
                }
              ]
            },
            "value": "7569773373"
          },
          "reference": "urn:uuid:c13d63ef-bc05-4358-b8eb-d25011f75916"
        }
      }
    },
    {
      "fullUrl": "urn:uuid:bdebd72e-b6ff-4669-a0b6-d35c6706fb4a",
      "resource": {
        "resourceType": "ServiceRequest",
        "authoredOn": "2026-02-11T11:10:58+00:00",
        "category": [
          {
            "coding": [
              {
                "code": "116148004",
                "system": "http://snomed.info/sct"
              }
            ]
          }
        ],
        "code": {
          "coding": [
            {
              "code": "R59.3",
              "system": "https://fhir.nhs.uk/CodeSystem/England-GenomicTestDirectory"
            }
          ]
        },
        "identifier": [
          {
            "assigner": {
              "identifier": {
                "system": "https://fhir.nhs.uk/Id/ods-organization-code",
                "value": "ROA"
              }
            },
            "system": "urn:oid:1.2.840.114350.1.13.861.1.7.2.798268",
            "type": {
              "coding": [
                {
                  "code": "PLAC",
                  "system": "http://terminology.hl7.org/CodeSystem/v2-0203"
                }
              ]
            },
            "value": "1000170505"
          }
        ],
        "intent": "order",
        "requester": {
          "reference": "urn:uuid:20b2b371-2035-418a-978d-be94222ab629"
        },
        "specimen": [
          {
            "reference": "urn:uuid:69f2eb03-e672-48c1-b655-61bcd424ab74",
            "type": "Specimen"
          },
          {
            "reference": "urn:uuid:4e6741a2-5de8-4f03-8a47-c44a8461b63c",
            "type": "Specimen"
          }
        ],
        "status": "active",
        "subject": {
          "identifier": {
            "assigner": {
              "identifier": {
                "system": "https://fhir.nhs.uk/Id/ods-organization-code",
                "value": "X24"
              }
            },
            "system": "https://fhir.nhs.uk/Id/nhs-number",
            "type": {
              "coding": [
                {
                  "code": "NH",
                  "system": "http://terminology.hl7.org/CodeSystem/v2-0203"
                }
              ]
            },
            "value": "7569773373"
          },
          "reference": "urn:uuid:c13d63ef-bc05-4358-b8eb-d25011f75916"
        },
        "supportingInfo": [
          {
            "reference": "urn:uuid:d8e090cf-d8f7-42e9-97d2-3b02fe3d7115",
            "type": "Observation"
          },
          {
            "reference": "urn:uuid:b6b0a677-fce5-447c-b3e2-c5dd9696fba0",
            "type": "Observation"
          },
          {
            "reference": "urn:uuid:844db842-79a4-424f-a6f4-c4fbbcf2fa15",
            "type": "Observation"
          },
          {
            "reference": "urn:uuid:1b929950-6b2f-4e8f-a00d-c896f8593281",
            "type": "Observation"
          },
          {
            "reference": "urn:uuid:1ea65ebf-eb3b-4f7a-9d07-48338b261c10",
            "type": "Observation"
          },
          {
            "reference": "urn:uuid:0832256b-930c-46f0-9dc1-423b4bdff44b",
            "type": "Observation"
          },
          {
            "reference": "urn:uuid:86dc8ef1-095b-4f8e-9bf3-3c8afbd6e0b6",
            "type": "Observation"
          },
          {
            "reference": "urn:uuid:e2e382c1-3653-4d1c-b82c-b5bc85e164e9",
            "type": "Observation"
          },
          {
            "reference": "urn:uuid:29b05c86-47d2-4aaa-9814-c3ecfec822ce",
            "type": "Observation"
          },
          {
            "reference": "urn:uuid:3c04dede-e5d7-442b-a006-a3159ae77a71",
            "type": "Observation"
          },
          {
            "reference": "urn:uuid:bd0a4bae-8b5a-466a-927b-44b31736d1c2",
            "type": "Observation"
          },
          {
            "reference": "urn:uuid:4239118e-8ca5-4796-af63-328d33f7dea2",
            "type": "Observation"
          },
          {
            "reference": "urn:uuid:3db98249-fe9b-428e-aad0-5d15522dc652",
            "type": "Observation"
          }
        ]
      }
    }
  ],
  "identifier": {
    "value": "796088666"
  },
  "timestamp": "2026-02-11T11:11:02+00:00",
  "type": "message"
}