{
  "resourceType": "Bundle",
  "entry": [
    {
      "fullUrl": "urn:uuid:4f7de290-544b-45df-ae8a-3b14df0161fd",
      "resource": {
        "resourceType": "MessageHeader",
        "destination": [
          {
            "endpoint": "https//fhir.mft.nhs.uk/Endpoint/iGene",
            "receiver": {
              "identifier": {
                "system": "https://fhir.nhs.uk/Id/ods-organization-code",
                "value": "SMHGEN"
              }
            }
          }
        ],
        "eventCoding": {
          "code": "O21",
          "system": "http://terminology.hl7.org/CodeSystem/v2-0003"
        },
        "focus": [
          {
            "reference": "urn:uuid:37f75f65-0528-401f-a0e5-6bba80b0f3c8"
          },
          {
            "reference": "urn:uuid:b069b886-dc5e-477c-83cf-0e2352ca351c"
          }
        ],
        "sender": {
          "identifier": {
            "system": "https://fhir.nhs.uk/Id/ods-organization-code",
            "value": "MFT"
          }
        },
        "source": {
          "endpoint": "https://fhir.nwgenomics.nhs.uk/Endpoint/EpicBeaker",
          "software": "NW GLH"
        }
      }
    },
    {
      "fullUrl": "urn:uuid:4f08a041-26e0-4675-9fc7-6b89cd2e33c9",
      "resource": {
        "resourceType": "Patient",
        "address": [
          {
            "city": "ASCOT",
            "district": "\"\"",
            "line": [
              "12 HIGH STREET",
              "\"\""
            ],
            "postalCode": "SL5 7JX"
          }
        ],
        "birthDate": "1972-10-25",
        "gender": "male",
        "identifier": [
          {
            "system": "urn:oid:1.2.840.114350.1.13.611.3.7.5.737384.14",
            "type": {
              "coding": [
                {
                  "code": "MR",
                  "system": "http://terminology.hl7.org/CodeSystem/v2-0203"
                }
              ]
            },
            "value": "20003025"
          },
          {
            "assigner": {
              "identifier": {
                "system": "https://fhir.nhs.uk/Id/ods-organization-code",
                "value": "X24"
              }
            },
            "system": "https://fhir.nhs.uk/Id/nhs-number",
            "type": {
              "coding": [
                {
                  "code": "NH",
                  "system": "http://terminology.hl7.org/CodeSystem/v2-0203"
                }
              ]
            },
            "value": "7569773373"
          }
        ],
        "name": [
          {
            "family": "APPCLINDOC",
            "given": [
              "Tenc"
            ],
            "prefix": [
              "\"\""
            ]
          }
        ]
      }
    },
    {
      "fullUrl": "urn:uuid:b97170c9-e8c5-4f6a-8b3f-3f552ae23bd4",
      "resource": {
        "resourceType": "PractitionerRole",
        "practitioner": {
          "display": "ONCOLOGY, PHYSICIAN",
          "identifier": {
            "system": "https://fhir.hl7.org.uk/Id/gmc-number",
            "value": "999"
          }
        }
      }
    },
    {
      "fullUrl": "urn:uuid:37f75f65-0528-401f-a0e5-6bba80b0f3c8",
      "resource": {
        "resourceType": "ServiceRequest",
        "authoredOn": "2026-02-11T11:10:58+00:00",
        "category": [
          {
            "coding": [
              {
                "code": "116148004",
                "system": "http://snomed.info/sct"
              }
            ]
          }
        ],
        "code": {
          "coding": [
            {
              "code": "R132.1",
              "system": "https://fhir.nhs.uk/CodeSystem/England-GenomicTestDirectory"
            }
          ]
        },
        "identifier": [
          {
            "assigner": {
              "identifier": {
                "system": "https://fhir.nhs.uk/Id/ods-organization-code",
                "value": "ROA"
              }
            },
            "system": "urn:oid:1.2.840.114350.1.13.861.1.7.2.798268",
            "type": {
              "coding": [
                {
                  "code": "PLAC",
                  "system": "http://terminology.hl7.org/CodeSystem/v2-0203"
                }
              ]
            },
            "value": "1000170505"
          }
        ],
        "intent": "order",
        "note": [
          {
            "text": "Wildcard inserted to engage the clinicians. Verify the impact to HL7 Message to iGene.\\n"
          }
        ],
        "requester": {
          "reference": "urn:uuid:b97170c9-e8c5-4f6a-8b3f-3f552ae23bd4"
        },
        "status": "active",
        "subject": {
          "identifier": {
            "assigner": {
              "identifier": {
                "system": "https://fhir.nhs.uk/Id/ods-organization-code",
                "value": "X24"
              }
            },
            "system": "https://fhir.nhs.uk/Id/nhs-number",
            "type": {
              "coding": [
                {
                  "code": "NH",
                  "system": "http://terminology.hl7.org/CodeSystem/v2-0203"
                }
              ]
            },
            "value": "7569773373"
          },
          "reference": "urn:uuid:4f08a041-26e0-4675-9fc7-6b89cd2e33c9"
        }
      }
    },
    {
      "fullUrl": "urn:uuid:068a0abf-6fb3-4fb1-865d-125794dafaf2",
      "resource": {
        "resourceType": "Observation",
        "code": {
          "coding": [
            {
              "code": "230056",
              "display": "What Type of Referral Do You Require?",
              "system": "https://fhir.nwgenomics.nhs.uk/CodeSystem/MFTQuestionIds"
            }
          ]
        },
        "effectiveDateTime": "2026-02-11T11:10:59+00:00",
        "identifier": [
          {
            "assigner": {
              "identifier": {
                "system": "https://fhir.nhs.uk/Id/ods-organization-code",
                "value": "ROA"
              }
            },
            "system": "urn:oid:1.2.840.114350.1.13.861.1.7.2.798268",
            "type": {
              "coding": [
                {
                  "code": "PLAC",
                  "system": "http://terminology.hl7.org/CodeSystem/v2-0203"
                }
              ]
            },
            "value": "1000170505"
          }
        ],
        "performer": [
          {
            "identifier": {
              "system": "https://fhir.nhs.uk/Id/ods-organization-code",
              "value": "699X0"
            },
            "type": "Organization"
          }
        ],
        "status": "final",
        "subject": {
          "identifier": {
            "assigner": {
              "identifier": {
                "system": "https://fhir.nhs.uk/Id/ods-organization-code",
                "value": "X24"
              }
            },
            "system": "https://fhir.nhs.uk/Id/nhs-number",
            "type": {
              "coding": [
                {
                  "code": "NH",
                  "system": "http://terminology.hl7.org/CodeSystem/v2-0203"
                }
              ]
            },
            "value": "7569773373"
          },
          "reference": "urn:uuid:4f08a041-26e0-4675-9fc7-6b89cd2e33c9"
        },
        "valueString": "Standard"
      }
    },
    {
      "fullUrl": "urn:uuid:16474c29-6ad6-415a-8a1e-06cdcd4ca7d3",
      "resource": {
        "resourceType": "Observation",
        "code": {
          "coding": [
            {
              "code": "230037",
              "display": "DNA Sample Will be Stored in the Laboratory on Completion of Testing",
              "system": "https://fhir.nwgenomics.nhs.uk/CodeSystem/MFTQuestionIds"
            }
          ]
        },
        "effectiveDateTime": "2026-02-11T11:10:59+00:00",
        "identifier": [
          {
            "assigner": {
              "identifier": {
                "system": "https://fhir.nhs.uk/Id/ods-organization-code",
                "value": "ROA"
              }
            },
            "system": "urn:oid:1.2.840.114350.1.13.861.1.7.2.798268",
            "type": {
              "coding": [
                {
                  "code": "PLAC",
                  "system": "http://terminology.hl7.org/CodeSystem/v2-0203"
                }
              ]
            },
            "value": "1000170505"
          }
        ],
        "performer": [
          {
            "identifier": {
              "system": "https://fhir.nhs.uk/Id/ods-organization-code",
              "value": "699X0"
            },
            "type": "Organization"
          }
        ],
        "status": "final",
        "subject": {
          "identifier": {
            "assigner": {
              "identifier": {
                "system": "https://fhir.nhs.uk/Id/ods-organization-code",
                "value": "X24"
              }
            },
            "system": "https://fhir.nhs.uk/Id/nhs-number",
            "type": {
              "coding": [
                {
                  "code": "NH",
                  "system": "http://terminology.hl7.org/CodeSystem/v2-0203"
                }
              ]
            },
            "value": "7569773373"
          },
          "reference": "urn:uuid:4f08a041-26e0-4675-9fc7-6b89cd2e33c9"
        },
        "valueString": "Please See Comments - *** DNA Storage"
      }
    },
    {
      "fullUrl": "urn:uuid:0cfd502f-d1c2-4575-9683-40ee11210bf1",
      "resource": {
        "resourceType": "Observation",
        "code": {
          "coding": [
            {
              "code": "230048",
              "display": "Select Clinical Indication(s)",
              "system": "https://fhir.nwgenomics.nhs.uk/CodeSystem/MFTQuestionIds"
            }
          ]
        },
        "effectiveDateTime": "2026-02-11T11:10:59+00:00",
        "identifier": [
          {
            "assigner": {
              "identifier": {
                "system": "https://fhir.nhs.uk/Id/ods-organization-code",
                "value": "ROA"
              }
            },
            "system": "urn:oid:1.2.840.114350.1.13.861.1.7.2.798268",
            "type": {
              "coding": [
                {
                  "code": "PLAC",
                  "system": "http://terminology.hl7.org/CodeSystem/v2-0203"
                }
              ]
            },
            "value": "1000170505"
          }
        ],
        "performer": [
          {
            "identifier": {
              "system": "https://fhir.nhs.uk/Id/ods-organization-code",
              "value": "699X0"
            },
            "type": "Organization"
          }
        ],
        "status": "final",
        "subject": {
          "identifier": {
            "assigner": {
              "identifier": {
                "system": "https://fhir.nhs.uk/Id/ods-organization-code",
                "value": "X24"
              }
            },
            "system": "https://fhir.nhs.uk/Id/nhs-number",
            "type": {
              "coding": [
                {
                  "code": "NH",
                  "system": "http://terminology.hl7.org/CodeSystem/v2-0203"
                }
              ]
            },
            "value": "7569773373"
          },
          "reference": "urn:uuid:4f08a041-26e0-4675-9fc7-6b89cd2e33c9"
        },
        "valueString": "R132: Dilated and Arrhythmogenic cardiomyopathy"
      }
    },
    {
      "fullUrl": "urn:uuid:d368e034-db21-428f-b817-f8952e803d62",
      "resource": {
        "resourceType": "Observation",
        "code": {
          "text": "Unknown observation code"
        },
        "identifier": [
          {
            "assigner": {
              "identifier": {
                "system": "https://fhir.nhs.uk/Id/ods-organization-code",
                "value": "ROA"
              }
            },
            "system": "urn:oid:1.2.840.114350.1.13.861.1.7.2.798268",
            "type": {
              "coding": [
                {
                  "code": "PLAC",
                  "system": "http://terminology.hl7.org/CodeSystem/v2-0203"
                }
              ]
            },
            "value": "1000170505"
          }
        ],
        "performer": [
          {
            "identifier": {
              "system": "https://fhir.nhs.uk/Id/ods-organization-code",
              "value": "699X0"
            },
            "type": "Organization"
          }
        ],
        "status": "final",
        "subject": {
          "identifier": {
            "assigner": {
              "identifier": {
                "system": "https://fhir.nhs.uk/Id/ods-organization-code",
                "value": "X24"
              }
            },
            "system": "https://fhir.nhs.uk/Id/nhs-number",
            "type": {
              "coding": [
                {
                  "code": "NH",
                  "system": "http://terminology.hl7.org/CodeSystem/v2-0203"
                }
              ]
            },
            "value": "7569773373"
          },
          "reference": "urn:uuid:4f08a041-26e0-4675-9fc7-6b89cd2e33c9"
        }
      }
    },
    {
      "fullUrl": "urn:uuid:0a173ba0-e912-4821-89db-9c69f249289a",
      "resource": {
        "resourceType": "Observation",
        "code": {
          "coding": [
            {
              "code": "231610",
              "display": "Clinical Utility:",
              "system": "https://fhir.nwgenomics.nhs.uk/CodeSystem/MFTQuestionIds"
            }
          ]
        },
        "effectiveDateTime": "2026-02-11T11:10:59+00:00",
        "identifier": [
          {
            "assigner": {
              "identifier": {
                "system": "https://fhir.nhs.uk/Id/ods-organization-code",
                "value": "ROA"
              }
            },
            "system": "urn:oid:1.2.840.114350.1.13.861.1.7.2.798268",
            "type": {
              "coding": [
                {
                  "code": "PLAC",
                  "system": "http://terminology.hl7.org/CodeSystem/v2-0203"
                }
              ]
            },
            "value": "1000170505"
          }
        ],
        "performer": [
          {
            "identifier": {
              "system": "https://fhir.nhs.uk/Id/ods-organization-code",
              "value": "699X0"
            },
            "type": "Organization"
          }
        ],
        "status": "final",
        "subject": {
          "identifier": {
            "assigner": {
              "identifier": {
                "system": "https://fhir.nhs.uk/Id/ods-organization-code",
                "value": "X24"
              }
            },
            "system": "https://fhir.nhs.uk/Id/nhs-number",
            "type": {
              "coding": [
                {
                  "code": "NH",
                  "system": "http://terminology.hl7.org/CodeSystem/v2-0203"
                }
              ]
            },
            "value": "7569773373"
          },
          "reference": "urn:uuid:4f08a041-26e0-4675-9fc7-6b89cd2e33c9"
        },
        "valueString": "Patient management (determining therapeutic decisions and/or clinical investigations and/or surveillance programme)"
      }
    },
    {
      "fullUrl": "urn:uuid:9b2050a8-8ec0-4d5c-aa1c-11c4ececa138",
      "resource": {
        "resourceType": "Observation",
        "code": {
          "coding": [
            {
              "code": "230019",
              "display": "High Infection Risk",
              "system": "https://fhir.nwgenomics.nhs.uk/CodeSystem/MFTQuestionIds"
            }
          ]
        },
        "effectiveDateTime": "2026-02-11T11:10:59+00:00",
        "identifier": [
          {
            "assigner": {
              "identifier": {
                "system": "https://fhir.nhs.uk/Id/ods-organization-code",
                "value": "ROA"
              }
            },
            "system": "urn:oid:1.2.840.114350.1.13.861.1.7.2.798268",
            "type": {
              "coding": [
                {
                  "code": "PLAC",
                  "system": "http://terminology.hl7.org/CodeSystem/v2-0203"
                }
              ]
            },
            "value": "1000170505"
          }
        ],
        "performer": [
          {
            "identifier": {
              "system": "https://fhir.nhs.uk/Id/ods-organization-code",
              "value": "699X0"
            },
            "type": "Organization"
          }
        ],
        "status": "final",
        "subject": {
          "identifier": {
            "assigner": {
              "identifier": {
                "system": "https://fhir.nhs.uk/Id/ods-organization-code",
                "value": "X24"
              }
            },
            "system": "https://fhir.nhs.uk/Id/nhs-number",
            "type": {
              "coding": [
                {
                  "code": "NH",
                  "system": "http://terminology.hl7.org/CodeSystem/v2-0203"
                }
              ]
            },
            "value": "7569773373"
          },
          "reference": "urn:uuid:4f08a041-26e0-4675-9fc7-6b89cd2e33c9"
        },
        "valueString": "No"
      }
    },
    {
      "fullUrl": "urn:uuid:fefaceab-a8ad-44fa-bfc4-0fa853dd4bc7",
      "resource": {
        "resourceType": "Observation",
        "code": {
          "coding": [
            {
              "code": "230034",
              "display": "Does This Test Relate to a Pregnancy",
              "system": "https://fhir.nwgenomics.nhs.uk/CodeSystem/MFTQuestionIds"
            }
          ]
        },
        "effectiveDateTime": "2026-02-11T11:10:59+00:00",
        "identifier": [
          {
            "assigner": {
              "identifier": {
                "system": "https://fhir.nhs.uk/Id/ods-organization-code",
                "value": "ROA"
              }
            },
            "system": "urn:oid:1.2.840.114350.1.13.861.1.7.2.798268",
            "type": {
              "coding": [
                {
                  "code": "PLAC",
                  "system": "http://terminology.hl7.org/CodeSystem/v2-0203"
                }
              ]
            },
            "value": "1000170505"
          }
        ],
        "performer": [
          {
            "identifier": {
              "system": "https://fhir.nhs.uk/Id/ods-organization-code",
              "value": "699X0"
            },
            "type": "Organization"
          }
        ],
        "status": "final",
        "subject": {
          "identifier": {
            "assigner": {
              "identifier": {
                "system": "https://fhir.nhs.uk/Id/ods-organization-code",
                "value": "X24"
              }
            },
            "system": "https://fhir.nhs.uk/Id/nhs-number",
            "type": {
              "coding": [
                {
                  "code": "NH",
                  "system": "http://terminology.hl7.org/CodeSystem/v2-0203"
                }
              ]
            },
            "value": "7569773373"
          },
          "reference": "urn:uuid:4f08a041-26e0-4675-9fc7-6b89cd2e33c9"
        },
        "valueString": "No"
      }
    },
    {
      "fullUrl": "urn:uuid:1dff2815-6f5d-43a2-94df-7632f3d0b6aa",
      "resource": {
        "resourceType": "Observation",
        "code": {
          "coding": [
            {
              "code": "230028",
              "display": "Date of Specimen(s) Collection",
              "system": "https://fhir.nwgenomics.nhs.uk/CodeSystem/MFTQuestionIds"
            }
          ]
        },
        "effectiveDateTime": "2026-02-11T11:10:59+00:00",
        "identifier": [
          {
            "assigner": {
              "identifier": {
                "system": "https://fhir.nhs.uk/Id/ods-organization-code",
                "value": "ROA"
              }
            },
            "system": "urn:oid:1.2.840.114350.1.13.861.1.7.2.798268",
            "type": {
              "coding": [
                {
                  "code": "PLAC",
                  "system": "http://terminology.hl7.org/CodeSystem/v2-0203"
                }
              ]
            },
            "value": "1000170505"
          }
        ],
        "performer": [
          {
            "identifier": {
              "system": "https://fhir.nhs.uk/Id/ods-organization-code",
              "value": "699X0"
            },
            "type": "Organization"
          }
        ],
        "status": "final",
        "subject": {
          "identifier": {
            "assigner": {
              "identifier": {
                "system": "https://fhir.nhs.uk/Id/ods-organization-code",
                "value": "X24"
              }
            },
            "system": "https://fhir.nhs.uk/Id/nhs-number",
            "type": {
              "coding": [
                {
                  "code": "NH",
                  "system": "http://terminology.hl7.org/CodeSystem/v2-0203"
                }
              ]
            },
            "value": "7569773373"
          },
          "reference": "urn:uuid:4f08a041-26e0-4675-9fc7-6b89cd2e33c9"
        },
        "valueDateTime": "2026-02-11"
      }
    },
    {
      "fullUrl": "urn:uuid:f0798c15-e6de-4b9e-854d-dff276de90f3",
      "resource": {
        "resourceType": "Observation",
        "code": {
          "coding": [
            {
              "code": "230100",
              "display": "Please Note That An Additional Test Order Form 'Whole Genome Sequencing Rare Disease Order Form (Link at Top of Form)' is Required To Activate Testing. If This is Not Received, The DNA Will Be Extracted and Stored",
              "system": "https://fhir.nwgenomics.nhs.uk/CodeSystem/MFTQuestionIds"
            }
          ]
        },
        "effectiveDateTime": "2026-02-11T11:10:59+00:00",
        "identifier": [
          {
            "assigner": {
              "identifier": {
                "system": "https://fhir.nhs.uk/Id/ods-organization-code",
                "value": "ROA"
              }
            },
            "system": "urn:oid:1.2.840.114350.1.13.861.1.7.2.798268",
            "type": {
              "coding": [
                {
                  "code": "PLAC",
                  "system": "http://terminology.hl7.org/CodeSystem/v2-0203"
                }
              ]
            },
            "value": "1000170505"
          }
        ],
        "performer": [
          {
            "identifier": {
              "system": "https://fhir.nhs.uk/Id/ods-organization-code",
              "value": "699X0"
            },
            "type": "Organization"
          }
        ],
        "status": "final",
        "subject": {
          "identifier": {
            "assigner": {
              "identifier": {
                "system": "https://fhir.nhs.uk/Id/ods-organization-code",
                "value": "X24"
              }
            },
            "system": "https://fhir.nhs.uk/Id/nhs-number",
            "type": {
              "coding": [
                {
                  "code": "NH",
                  "system": "http://terminology.hl7.org/CodeSystem/v2-0203"
                }
              ]
            },
            "value": "7569773373"
          },
          "reference": "urn:uuid:4f08a041-26e0-4675-9fc7-6b89cd2e33c9"
        },
        "valueString": "Acknowledged"
      }
    },
    {
      "fullUrl": "urn:uuid:6ed84df2-3095-430d-8722-0e24613d6fd2",
      "resource": {
        "resourceType": "Observation",
        "code": {
          "coding": [
            {
              "code": "230027",
              "display": "Email Addresses of Non-MFT Clinicians for Result Reports",
              "system": "https://fhir.nwgenomics.nhs.uk/CodeSystem/MFTQuestionIds"
            }
          ]
        },
        "effectiveDateTime": "2026-02-11T11:10:59+00:00",
        "identifier": [
          {
            "assigner": {
              "identifier": {
                "system": "https://fhir.nhs.uk/Id/ods-organization-code",
                "value": "ROA"
              }
            },
            "system": "urn:oid:1.2.840.114350.1.13.861.1.7.2.798268",
            "type": {
              "coding": [
                {
                  "code": "PLAC",
                  "system": "http://terminology.hl7.org/CodeSystem/v2-0203"
                }
              ]
            },
            "value": "1000170505"
          }
        ],
        "performer": [
          {
            "identifier": {
              "system": "https://fhir.nhs.uk/Id/ods-organization-code",
              "value": "699X0"
            },
            "type": "Organization"
          }
        ],
        "status": "final",
        "subject": {
          "identifier": {
            "assigner": {
              "identifier": {
                "system": "https://fhir.nhs.uk/Id/ods-organization-code",
                "value": "X24"
              }
            },
            "system": "https://fhir.nhs.uk/Id/nhs-number",
            "type": {
              "coding": [
                {
                  "code": "NH",
                  "system": "http://terminology.hl7.org/CodeSystem/v2-0203"
                }
              ]
            },
            "value": "7569773373"
          },
          "reference": "urn:uuid:4f08a041-26e0-4675-9fc7-6b89cd2e33c9"
        },
        "valueString": "peter.volek@mft.nhs.uk"
      }
    },
    {
      "fullUrl": "urn:uuid:6a1d95df-47db-499e-be21-731bf2802daa",
      "resource": {
        "resourceType": "Observation",
        "code": {
          "coding": [
            {
              "code": "230029",
              "display": "Confirmation of Consent for Testing:",
              "system": "https://fhir.nwgenomics.nhs.uk/CodeSystem/MFTQuestionIds"
            }
          ]
        },
        "effectiveDateTime": "2026-02-11T11:10:59+00:00",
        "identifier": [
          {
            "assigner": {
              "identifier": {
                "system": "https://fhir.nhs.uk/Id/ods-organization-code",
                "value": "ROA"
              }
            },
            "system": "urn:oid:1.2.840.114350.1.13.861.1.7.2.798268",
            "type": {
              "coding": [
                {
                  "code": "PLAC",
                  "system": "http://terminology.hl7.org/CodeSystem/v2-0203"
                }
              ]
            },
            "value": "1000170505"
          }
        ],
        "performer": [
          {
            "identifier": {
              "system": "https://fhir.nhs.uk/Id/ods-organization-code",
              "value": "699X0"
            },
            "type": "Organization"
          }
        ],
        "status": "final",
        "subject": {
          "identifier": {
            "assigner": {
              "identifier": {
                "system": "https://fhir.nhs.uk/Id/ods-organization-code",
                "value": "X24"
              }
            },
            "system": "https://fhir.nhs.uk/Id/nhs-number",
            "type": {
              "coding": [
                {
                  "code": "NH",
                  "system": "http://terminology.hl7.org/CodeSystem/v2-0203"
                }
              ]
            },
            "value": "7569773373"
          },
          "reference": "urn:uuid:4f08a041-26e0-4675-9fc7-6b89cd2e33c9"
        },
        "valueString": "Completed Electronically on HIVE"
      }
    },
    {
      "fullUrl": "urn:uuid:c377b6e1-553b-4f7c-8666-92f5dd294d2f",
      "resource": {
        "resourceType": "Observation",
        "code": {
          "coding": [
            {
              "code": "230039",
              "display": "Are you the Patient’s Consultant?",
              "system": "https://fhir.nwgenomics.nhs.uk/CodeSystem/MFTQuestionIds"
            }
          ]
        },
        "effectiveDateTime": "2026-02-11T11:10:59+00:00",
        "identifier": [
          {
            "assigner": {
              "identifier": {
                "system": "https://fhir.nhs.uk/Id/ods-organization-code",
                "value": "ROA"
              }
            },
            "system": "urn:oid:1.2.840.114350.1.13.861.1.7.2.798268",
            "type": {
              "coding": [
                {
                  "code": "PLAC",
                  "system": "http://terminology.hl7.org/CodeSystem/v2-0203"
                }
              ]
            },
            "value": "1000170505"
          }
        ],
        "performer": [
          {
            "identifier": {
              "system": "https://fhir.nhs.uk/Id/ods-organization-code",
              "value": "699X0"
            },
            "type": "Organization"
          }
        ],
        "status": "final",
        "subject": {
          "identifier": {
            "assigner": {
              "identifier": {
                "system": "https://fhir.nhs.uk/Id/ods-organization-code",
                "value": "X24"
              }
            },
            "system": "https://fhir.nhs.uk/Id/nhs-number",
            "type": {
              "coding": [
                {
                  "code": "NH",
                  "system": "http://terminology.hl7.org/CodeSystem/v2-0203"
                }
              ]
            },
            "value": "7569773373"
          },
          "reference": "urn:uuid:4f08a041-26e0-4675-9fc7-6b89cd2e33c9"
        },
        "valueString": "No"
      }
    },
    {
      "fullUrl": "urn:uuid:2b9b9e73-3135-4005-aa00-5ae21d87e020",
      "resource": {
        "resourceType": "Observation",
        "code": {
          "coding": [
            {
              "code": "230049",
              "display": "Name of Supervising Consultant",
              "system": "https://fhir.nwgenomics.nhs.uk/CodeSystem/MFTQuestionIds"
            }
          ]
        },
        "effectiveDateTime": "2026-02-11T11:10:59+00:00",
        "identifier": [
          {
            "assigner": {
              "identifier": {
                "system": "https://fhir.nhs.uk/Id/ods-organization-code",
                "value": "ROA"
              }
            },
            "system": "urn:oid:1.2.840.114350.1.13.861.1.7.2.798268",
            "type": {
              "coding": [
                {
                  "code": "PLAC",
                  "system": "http://terminology.hl7.org/CodeSystem/v2-0203"
                }
              ]
            },
            "value": "1000170505"
          }
        ],
        "performer": [
          {
            "identifier": {
              "system": "https://fhir.nhs.uk/Id/ods-organization-code",
              "value": "699X0"
            },
            "type": "Organization"
          }
        ],
        "status": "final",
        "subject": {
          "identifier": {
            "assigner": {
              "identifier": {
                "system": "https://fhir.nhs.uk/Id/ods-organization-code",
                "value": "X24"
              }
            },
            "system": "https://fhir.nhs.uk/Id/nhs-number",
            "type": {
              "coding": [
                {
                  "code": "NH",
                  "system": "http://terminology.hl7.org/CodeSystem/v2-0203"
                }
              ]
            },
            "value": "7569773373"
          },
          "reference": "urn:uuid:4f08a041-26e0-4675-9fc7-6b89cd2e33c9"
        },
        "valueString": "ONCOLOGY, PHYSICIAN"
      }
    },
    {
      "fullUrl": "urn:uuid:6c9a6bfd-3927-45cc-ac83-67d3b2c74e61",
      "resource": {
        "resourceType": "Specimen",
        "status": "unavailable",
        "subject": {
          "identifier": {
            "assigner": {
              "identifier": {
                "system": "https://fhir.nhs.uk/Id/ods-organization-code",
                "value": "X24"
              }
            },
            "system": "https://fhir.nhs.uk/Id/nhs-number",
            "type": {
              "coding": [
                {
                  "code": "NH",
                  "system": "http://terminology.hl7.org/CodeSystem/v2-0203"
                }
              ]
            },
            "value": "7569773373"
          },
          "reference": "urn:uuid:4f08a041-26e0-4675-9fc7-6b89cd2e33c9"
        }
      }
    },
    {
      "fullUrl": "urn:uuid:0b7765ad-2076-450c-a27b-bb378452090b",
      "resource": {
        "resourceType": "Specimen",
        "status": "unavailable",
        "subject": {
          "identifier": {
            "assigner": {
              "identifier": {
                "system": "https://fhir.nhs.uk/Id/ods-organization-code",
                "value": "X24"
              }
            },
            "system": "https://fhir.nhs.uk/Id/nhs-number",
            "type": {
              "coding": [
                {
                  "code": "NH",
                  "system": "http://terminology.hl7.org/CodeSystem/v2-0203"
                }
              ]
            },
            "value": "7569773373"
          },
          "reference": "urn:uuid:4f08a041-26e0-4675-9fc7-6b89cd2e33c9"
        }
      }
    },
    {
      "fullUrl": "urn:uuid:b069b886-dc5e-477c-83cf-0e2352ca351c",
      "resource": {
        "resourceType": "ServiceRequest",
        "authoredOn": "2026-02-11T11:10:58+00:00",
        "category": [
          {
            "coding": [
              {
                "code": "116148004",
                "system": "http://snomed.info/sct"
              }
            ]
          }
        ],
        "code": {
          "coding": [
            {
              "code": "R59.3",
              "system": "https://fhir.nhs.uk/CodeSystem/England-GenomicTestDirectory"
            }
          ]
        },
        "identifier": [
          {
            "assigner": {
              "identifier": {
                "system": "https://fhir.nhs.uk/Id/ods-organization-code",
                "value": "ROA"
              }
            },
            "system": "urn:oid:1.2.840.114350.1.13.861.1.7.2.798268",
            "type": {
              "coding": [
                {
                  "code": "PLAC",
                  "system": "http://terminology.hl7.org/CodeSystem/v2-0203"
                }
              ]
            },
            "value": "1000170505"
          }
        ],
        "intent": "order",
        "requester": {
          "reference": "urn:uuid:b97170c9-e8c5-4f6a-8b3f-3f552ae23bd4"
        },
        "specimen": [
          {
            "reference": "urn:uuid:6c9a6bfd-3927-45cc-ac83-67d3b2c74e61",
            "type": "Specimen"
          },
          {
            "reference": "urn:uuid:0b7765ad-2076-450c-a27b-bb378452090b",
            "type": "Specimen"
          }
        ],
        "status": "active",
        "subject": {
          "identifier": {
            "assigner": {
              "identifier": {
                "system": "https://fhir.nhs.uk/Id/ods-organization-code",
                "value": "X24"
              }
            },
            "system": "https://fhir.nhs.uk/Id/nhs-number",
            "type": {
              "coding": [
                {
                  "code": "NH",
                  "system": "http://terminology.hl7.org/CodeSystem/v2-0203"
                }
              ]
            },
            "value": "7569773373"
          },
          "reference": "urn:uuid:4f08a041-26e0-4675-9fc7-6b89cd2e33c9"
        },
        "supportingInfo": [
          {
            "reference": "urn:uuid:068a0abf-6fb3-4fb1-865d-125794dafaf2",
            "type": "Observation"
          },
          {
            "reference": "urn:uuid:16474c29-6ad6-415a-8a1e-06cdcd4ca7d3",
            "type": "Observation"
          },
          {
            "reference": "urn:uuid:0cfd502f-d1c2-4575-9683-40ee11210bf1",
            "type": "Observation"
          },
          {
            "reference": "urn:uuid:d368e034-db21-428f-b817-f8952e803d62",
            "type": "Observation"
          },
          {
            "reference": "urn:uuid:0a173ba0-e912-4821-89db-9c69f249289a",
            "type": "Observation"
          },
          {
            "reference": "urn:uuid:9b2050a8-8ec0-4d5c-aa1c-11c4ececa138",
            "type": "Observation"
          },
          {
            "reference": "urn:uuid:fefaceab-a8ad-44fa-bfc4-0fa853dd4bc7",
            "type": "Observation"
          },
          {
            "reference": "urn:uuid:1dff2815-6f5d-43a2-94df-7632f3d0b6aa",
            "type": "Observation"
          },
          {
            "reference": "urn:uuid:f0798c15-e6de-4b9e-854d-dff276de90f3",
            "type": "Observation"
          },
          {
            "reference": "urn:uuid:6ed84df2-3095-430d-8722-0e24613d6fd2",
            "type": "Observation"
          },
          {
            "reference": "urn:uuid:6a1d95df-47db-499e-be21-731bf2802daa",
            "type": "Observation"
          },
          {
            "reference": "urn:uuid:c377b6e1-553b-4f7c-8666-92f5dd294d2f",
            "type": "Observation"
          },
          {
            "reference": "urn:uuid:2b9b9e73-3135-4005-aa00-5ae21d87e020",
            "type": "Observation"
          }
        ]
      }
    }
  ],
  "identifier": {
    "value": "796088666"
  },
  "timestamp": "2026-02-11T11:11:02+00:00",
  "type": "message"
}